"Time (s)","Acceleration x (m/s^2)","Acceleration y (m/s^2)","Acceleration z (m/s^2)","Absolute acceleration (m/s^2)"
2.024783000E-2,-1.083376259E-1,2.483984232E-1,9.766547203E0,9.770306192E0
2.275512100E-2,-1.370680481E-1,2.436100245E-1,9.756970406E0,9.760973568E0
2.526470500E-2,-1.897404790E-1,2.244564146E-1,9.747393608E0,9.751823639E0
2.777694400E-2,-2.184709013E-1,2.196680009E-1,9.742605209E0,9.747529935E0
3.029204800E-2,-2.184709013E-1,2.244564146E-1,9.737816811E0,9.742853096E0
3.281012100E-2,-2.328361124E-1,1.574187577E-1,9.833584785E0,9.837600472E0
3.533111100E-2,-2.759317458E-1,9.995792061E-2,9.622895241E0,9.627369461E0
3.785491300E-2,-7.481880486E-2,3.393780887E-1,9.728240013E0,9.734445495E0
4.038126700E-2,-1.179144308E-1,1.765723825E-1,9.862315178E0,9.864600463E0
4.290986100E-2,-1.083376259E-1,1.526303589E-1,9.804854393E0,9.806640747E0
4.544027800E-2,-1.256955881E-2,2.100912035E-1,9.709086418E0,9.711367328E0
4.797204800E-2,-6.524199992E-2,2.005143911E-1,9.656414032E0,9.658715986E0
5.050465300E-2,-8.918401599E-2,2.005143911E-1,9.656414032E0,9.658907380E0
5.303762100E-2,-6.524199992E-2,2.148796022E-1,9.618106842E0,9.620728090E0
5.556777800E-2,-9.397241473E-2,2.292448133E-1,9.709086418E0,9.712247066E0
5.808861100E-2,-1.227028370E-1,2.244564146E-1,9.819219589E0,9.822551095E0
6.060944400E-2,-1.370680481E-1,2.579752207E-1,9.862315178E0,9.866640742E0
6.312991300E-2,-1.562216580E-1,2.436100245E-1,9.948506355E0,9.952714693E0
6.565038200E-2,-1.801636815E-1,2.579752207E-1,1.000596714E1,1.001091347E1
6.817085100E-2,-1.753752679E-1,2.819172442E-1,9.943717957E0,9.949259300E0
7.069131900E-2,-1.945288926E-1,2.531868219E-1,9.919775963E0,9.924913108E0
7.321178800E-2,-2.328361124E-1,2.196680009E-1,9.900622368E0,9.905795776E0
7.573225700E-2,-2.041056901E-1,2.244564146E-1,9.867103577E0,9.871766448E0
7.825272600E-2,-1.418564469E-1,2.292448133E-1,9.862315178E0,9.865999042E0
8.077319400E-2,-1.131260321E-1,2.148796022E-1,9.881468773E0,9.884452228E0
8.329366300E-2,-7.960720360E-2,2.531868219E-1,9.847949982E0,9.851525756E0
8.581413200E-2,-6.045359373E-2,2.675520480E-1,9.780912399E0,9.784757846E0
8.833460100E-2,-4.129998013E-2,2.531868219E-1,9.742605209E0,9.745982019E0
9.085506900E-2,-4.608838260E-2,2.579752207E-1,9.713874817E0,9.717409084E0
9.337553800E-2,-6.045359373E-2,2.723404467E-1,9.689932823E0,9.693947703E0
9.589600700E-2,-7.960720360E-2,2.723404467E-1,9.699509621E0,9.703658769E0
9.841647600E-2,-1.035492271E-1,2.675520480E-1,9.728240013E0,9.732469383E0
1.009369440E-1,-1.274912357E-1,2.867056429E-1,9.785700798E0,9.790730016E0
1.034574130E-1,-1.227028370E-1,2.819172442E-1,9.819219589E0,9.824032098E0
1.059779340E-1,-1.227028370E-1,3.106476665E-1,9.847949982E0,9.853612373E0
1.084985070E-1,-1.322796494E-1,3.250128925E-1,9.852738380E0,9.858984982E0
1.110191320E-1,-1.418564469E-1,3.010708690E-1,9.824007988E0,9.829643934E0
1.135398090E-1,-1.370680481E-1,2.914940715E-1,9.795277596E0,9.800572413E0
1.160605380E-1,-1.322796494E-1,2.723404467E-1,9.771335602E0,9.776025095E0
1.185813190E-1,-1.274912357E-1,2.771288455E-1,9.728240013E0,9.733021533E0
1.211021530E-1,-1.035492271E-1,2.771288455E-1,9.752182007E0,9.756668321E0
1.236229860E-1,-9.876082093E-2,2.723404467E-1,9.742605209E0,9.746911269E0
1.261438190E-1,-8.439560980E-2,2.819172442E-1,9.756970406E0,9.761407247E0
1.286646530E-1,-5.566519126E-2,2.867056429E-1,9.766547203E0,9.770913110E0
1.311854860E-1,-7.481880486E-2,2.723404467E-1,9.756970406E0,9.761057252E0
1.337061630E-1,-7.960720360E-2,2.675520480E-1,9.742605209E0,9.746603391E0
1.362267880E-1,-9.397241473E-2,2.771288455E-1,9.747393608E0,9.751785137E0
1.387474130E-1,-1.131260321E-1,2.723404467E-1,9.747393608E0,9.751853617E0
1.412680380E-1,-1.131260321E-1,2.819172442E-1,9.766547203E0,9.771270086E0
1.437886630E-1,-1.370680481E-1,2.771288455E-1,9.800065994E0,9.804941690E0
1.463092880E-1,-1.370680481E-1,2.867056429E-1,9.847949982E0,9.853075998E0
1.488299130E-1,-1.418564469E-1,2.819172442E-1,9.867103577E0,9.872149390E0
1.513505900E-1,-1.322796494E-1,2.819172442E-1,9.876680374E0,9.881588458E0
1.538713190E-1,-1.418564469E-1,2.819172442E-1,9.862315178E0,9.867363440E0
1.563921010E-1,-1.370680481E-1,2.819172442E-1,9.838373184E0,9.843365882E0
1.589129340E-1,-1.466448605E-1,2.675520480E-1,9.814431190E0,9.819172491E0
1.614338190E-1,-1.322796494E-1,2.723404467E-1,9.809642792E0,9.814313981E0
1.639547570E-1,-1.274912357E-1,2.579752207E-1,9.809642792E0,9.813862488E0
1.664756940E-1,-1.179144308E-1,2.483984232E-1,9.814431190E0,9.818282191E0
1.689966320E-1,-9.876082093E-2,2.483984232E-1,9.814431190E0,9.818070843E0
1.715174650E-1,-9.876082093E-2,2.388216257E-1,9.819219589E0,9.822619957E0
1.740377780E-1,-9.397241473E-2,2.244564146E-1,9.833584785E0,9.836595002E0
1.765580900E-1,-9.876082093E-2,2.148796022E-1,9.824007988E0,9.826854018E0
1.790784030E-1,-8.918401599E-2,2.244564146E-1,9.804854393E0,9.807828717E0
1.815987150E-1,-9.876082093E-2,2.292448133E-1,9.785700798E0,9.788883848E0
1.841190800E-1,-1.035492271E-1,2.244564146E-1,9.756970406E0,9.760101158E0
1.866394960E-1,-1.035492271E-1,2.340332121E-1,9.761758804E0,9.765112848E0
1.891599650E-1,-1.083376259E-1,2.292448133E-1,9.766547203E0,9.769837997E0
1.916804860E-1,-1.083376259E-1,2.196680009E-1,9.780912399E0,9.783978661E0
1.942010590E-1,-9.397241473E-2,2.292448133E-1,9.776124001E0,9.779262982E0
1.967216840E-1,-8.918401599E-2,2.244564146E-1,9.766547203E0,9.769533189E0
1.992424130E-1,-9.397241473E-2,2.340332121E-1,9.756970406E0,9.760229191E0
2.017632460E-1,-7.960720360E-2,2.196680009E-1,9.747393608E0,9.750193510E0
2.042841840E-1,-9.397241473E-2,2.100912035E-1,9.713874817E0,9.716600902E0
2.068052260E-1,-9.397241473E-2,2.100912035E-1,9.728240013E0,9.730962074E0
2.093263190E-1,-7.960720360E-2,1.957259923E-1,9.742605209E0,9.744896215E0
2.118474650E-1,-8.439560980E-2,1.909375787E-1,9.766547203E0,9.768778022E0
2.143686630E-1,-8.439560980E-2,2.005143911E-1,9.756970406E0,9.759395480E0
2.168898610E-1,-7.960720360E-2,2.005143911E-1,9.776124001E0,9.778504170E0
2.194110590E-1,-9.397241473E-2,2.005143911E-1,9.771335602E0,9.773844498E0
2.219319960E-1,-9.397241473E-2,1.861491799E-1,9.780912399E0,9.783134963E0
2.244528820E-1,-8.918401599E-2,1.622071713E-1,9.771335602E0,9.773088785E0
2.269737670E-1,-9.876082093E-2,1.765723825E-1,9.766547203E0,9.768642474E0
2.294946530E-1,-1.035492271E-1,1.909375787E-1,9.766547203E0,9.768962272E0
2.320153820E-1,-7.481880486E-2,1.861491799E-1,9.780912399E0,9.782969730E0
2.345361110E-1,-8.918401599E-2,1.813607812E-1,9.795277596E0,9.797362334E0
2.370568400E-1,-9.397241473E-2,1.909375787E-1,9.800065994E0,9.802376317E0
2.395774130E-1,-1.035492271E-1,1.957259923E-1,9.814431190E0,9.816928781E0
2.420978820E-1,-1.131260321E-1,1.813607812E-1,9.800065994E0,9.802396785E0
2.446183510E-1,-1.179144308E-1,1.813607812E-1,9.795277596E0,9.797665983E0
2.471388190E-1,-1.035492271E-1,1.765723825E-1,9.809642792E0,9.811778226E0
2.496593400E-1,-1.035492271E-1,1.957259923E-1,9.800065994E0,9.802567245E0
2.521799130E-1,-1.083376259E-1,2.005143911E-1,9.804854393E0,9.807502879E0
2.547004860E-1,-1.083376259E-1,2.005143911E-1,9.804854393E0,9.807502879E0
2.572211110E-1,-1.083376259E-1,1.909375787E-1,9.824007988E0,9.826460561E0
2.597417880E-1,-1.035492271E-1,2.100912035E-1,9.824007988E0,9.826799769E0
2.622624650E-1,-1.035492271E-1,1.765723825E-1,9.819219589E0,9.821352941E0
2.647831420E-1,-1.035492271E-1,1.909375787E-1,9.809642792E0,9.812047253E0
2.673038190E-1,-9.397241473E-2,1.669955701E-1,9.804854393E0,9.806726671E0
2.698244440E-1,-9.397241473E-2,1.526303589E-1,9.809642792E0,9.811280168E0
2.723446010E-1,-8.918401599E-2,1.669955701E-1,9.785700798E0,9.787531937E0
2.748647570E-1,-7.960720360E-2,2.005143911E-1,9.761758804E0,9.764142475E0
2.773849130E-1,-9.876082093E-2,1.861491799E-1,9.780912399E0,9.783182130E0
2.799050690E-1,-9.397241473E-2,1.717839688E-1,9.752182007E0,9.754147551E0
2.824252780E-1,-9.397241473E-2,1.574187577E-1,9.709086418E0,9.710817193E0
2.849455380E-1,-8.918401599E-2,1.478419602E-1,9.685144424E0,9.686683310E0
2.874658510E-1,-9.397241473E-2,1.286883354E-1,9.675567627E0,9.676879683E0
2.899862150E-1,-7.481880486E-2,1.382651478E-1,9.685144424E0,9.686420269E0
2.925066320E-1,-7.003039867E-2,1.478419602E-1,9.723451614E0,9.724827649E0
2.950271010E-1,-9.397241473E-2,1.526303589E-1,9.761758804E0,9.763404211E0
2.975476210E-1,-7.960720360E-2,1.622071713E-1,9.780912399E0,9.782581246E0
3.000681940E-1,-9.876082093E-2,1.526303589E-1,9.776124001E0,9.777814183E0
3.025888190E-1,-1.131260321E-1,1.717839688E-1,9.776124001E0,9.778287565E0
3.051094960E-1,-1.083376259E-1,1.574187577E-1,9.752182007E0,9.754054111E0
3.076302260E-1,-1.083376259E-1,1.478419602E-1,9.622895241E0,9.624640622E0
3.101510070E-1,-4.608838260E-2,1.957259923E-1,9.158419609E0,9.160626755E0
3.126717880E-1,9.277531505E-2,2.436100245E-1,8.789712906E0,8.793577547E0
3.151925690E-1,5.446808785E-2,1.861491799E-1,9.302072525E0,9.304094343E0
3.177133510E-1,-2.328361124E-1,1.526303589E-1,1.003948593E1,1.004334538E1
3.202340280E-1,-4.100070298E-1,2.675520480E-1,1.037467480E1,1.038622005E1
3.227547050E-1,-4.866214991E-1,1.909375787E-1,1.012088871E1,1.013437940E1
3.252752260E-1,-5.536591411E-1,2.196680009E-1,9.871891975E0,9.889845482E0
3.277957460E-1,-5.632359385E-1,1.622071713E-1,9.627683640E0,9.645508704E0
3.303162670E-1,-5.392939448E-1,1.574187577E-1,9.800065994E0,9.816155669E0
3.328367880E-1,-4.578910768E-1,2.100912035E-1,1.013525391E1,1.014776696E1
3.353573090E-1,-4.195838571E-1,2.196680009E-1,1.004906273E1,1.006021701E1
3.378778300E-1,-3.142389655E-1,1.957259923E-1,1.007779312E1,1.008459067E1
3.403983510E-1,-4.100070298E-1,3.202244639E-1,1.005385113E1,1.006730212E1
3.429188710E-1,-1.013345838E0,7.128735781E-1,9.665990829E0,9.745072459E0
3.454393920E-1,-2.181716204E0,1.105522633E0,9.570222855E0,9.877815111E0
3.479599130E-1,-2.852092743E0,1.282693505E0,9.694721222E0,1.018662629E1
3.504804340E-1,-3.326144695E0,1.397615194E0,9.742605209E0,1.038917336E1
3.530005900E-1,-3.522469282E0,1.397615194E0,1.001554394E1,1.070851243E1
3.555206420E-1,-3.766677856E0,1.550844193E0,1.023581123E1,1.101656986E1
3.580406940E-1,-3.206434727E0,1.253963113E0,1.023581123E1,1.079932770E1
3.605607460E-1,-2.641402960E0,8.086416125E-1,1.051353836E1,1.087039096E1
3.630808510E-1,-2.358887196E0,5.404910445E-1,1.040340519E1,1.068116655E1
3.656010070E-1,-2.129043818E0,2.914940715E-1,1.025017643E1,1.047300879E1
3.681212670E-1,-2.152985811E0,2.053027898E-1,1.020229244E1,1.042901089E1
3.706416320E-1,-2.239177227E0,1.957259923E-1,1.002512074E1,1.027400940E1
3.731621010E-1,-2.095525026E0,1.717839688E-1,9.900622368E0,1.012141582E1
3.756826730E-1,-1.798644066E0,1.430535465E-1,9.867103577E0,1.003071871E1
3.782032980E-1,-1.664568782E0,1.334767491E-1,9.790489197E0,9.931882197E0
3.807239760E-1,-1.554435492E0,2.531868219E-1,9.694721222E0,9.821812095E0
3.832447050E-1,-1.434725404E0,3.872621357E-1,9.852738380E0,9.964178970E0
3.857654860E-1,-1.425148606E0,5.165489912E-1,9.685144424E0,9.803055337E0
3.882863190E-1,-1.391629696E0,6.123170853E-1,9.728240013E0,9.846330239E0
3.908071530E-1,-1.286284804E0,7.320271730E-1,9.910199165E0,1.002010179E1
3.933279860E-1,-1.396418095E0,9.331400990E-1,9.819219589E0,9.961817469E0
3.958488190E-1,-1.640626669E0,1.234809518E0,9.469666481E0,9.689736512E0
3.983693400E-1,-1.731606364E0,1.474229693E0,9.857526779E0,1.011645432E1
4.008898090E-1,-1.793855667E0,1.574786186E0,9.756970406E0,1.004471708E1
4.034101730E-1,-1.779490471E0,1.584362984E0,9.613318443E0,9.904175074E0
4.059305380E-1,-1.688510776E0,1.560420990E0,9.900622368E0,1.016406934E1
4.084509030E-1,-1.836951256E0,1.660977483E0,9.881468773E0,1.018708306E1
4.109712670E-1,-2.085948229E0,1.790264368E0,9.689932823E0,1.007228994E1
4.134916320E-1,-2.311003208E0,1.943493247E0,9.771335602E0,1.022726265E1
4.160119960E-1,-2.478597403E0,2.020107746E0,9.479243279E0,1.000401587E1
4.185323610E-1,-2.502539396E0,1.962646842E0,9.575011253E0,1.008937692E1
4.210527260E-1,-2.512116194E0,1.871667147E0,9.914987564E0,1.039811733E1
4.235730900E-1,-2.531269789E0,1.761533856E0,1.010173512E1,1.056197806E1
4.260935070E-1,-2.665344954E0,1.708861470E0,9.737816811E0,1.023959704E1
4.286139760E-1,-2.674921751E0,1.589151382E0,9.814431190E0,1.029580828E1
4.311344960E-1,-2.627037764E0,1.421557307E0,1.014004230E1,1.057083774E1
4.336550690E-1,-2.727594376E0,1.344942808E0,9.852738380E0,1.031140610E1
4.361756420E-1,-2.579153776E0,1.153406620E0,9.479243279E0,9.891331264E0
4.386962150E-1,-2.722805977E0,1.162983418E0,9.608530045E0,1.005435490E1
4.412167880E-1,-2.679710150E0,1.076792240E0,9.579799652E0,1.000564288E1
4.437373610E-1,-2.555211782E0,9.810241461E-1,9.460089684E0,9.848086741E0
4.462579340E-1,-2.363675594E0,8.756792545E-1,9.728240013E0,1.004949900E1
4.487785070E-1,-2.148197412E0,8.182184100E-1,9.694721222E0,9.963526136E0
4.512990800E-1,-2.062006235E0,8.373720646E-1,9.469666481E0,9.727674180E0
4.538196530E-1,-1.851316452E0,7.942764163E-1,9.594164848E0,9.803379354E0
4.563402260E-1,-9.463081956E-1,6.314706802E-1,9.091382027E0,9.162285827E0
4.588607980E-1,-3.525462151E-1,4.973953962E-1,7.994838238E0,8.018050228E0
4.613813710E-1,-5.566519126E-2,3.298012912E-1,6.979696274E0,6.987705459E0
4.639019440E-1,-6.524199992E-2,1.909375787E-1,7.913434982E0,7.916007005E0
4.664225170E-1,-2.902969420E-1,9.995792061E-2,8.818443298E0,8.823786382E0
4.689430900E-1,2.029085904E-1,-2.160767019E-1,9.828796387E0,9.833264943E0
4.714636630E-1,4.231751561E-1,-4.938040972E-1,1.165317822E1,1.167131022E1
4.739842360E-1,7.344213724E-1,-7.571662664E-1,1.308012199E1,1.312258614E1
4.765048090E-1,1.208473325E0,-9.774328470E-1,1.242411137E1,1.252095547E1
4.790253820E-1,1.548449993E0,-1.082777739E0,1.092534065E1,1.108752332E1
4.815459550E-1,1.265934110E0,-1.063624144E0,9.445724487E0,9.589348079E0
4.840665280E-1,1.294664621E0,-1.092354536E0,9.100958824E0,9.257259121E0
4.865871010E-1,1.672948480E0,-1.192911029E0,1.001554394E1,1.022413389E1
4.891076210E-1,1.644217968E0,-1.173757434E0,9.536704063E0,9.748327222E0
4.916280380E-1,1.840542555E0,-1.221641421E0,9.139266014E0,9.402456484E0
4.941484550E-1,2.233191729E0,-1.288679123E0,9.718663216E0,1.005486220E1
4.966688710E-1,2.391208887E0,-1.298255920E0,9.800065994E0,1.017077391E1
4.991892880E-1,2.506130695E0,-1.259948611E0,9.522338867E0,9.926887683E0
5.017097050E-1,2.601898670E0,-1.255160213E0,1.018792725E1,1.058957815E1
5.042301210E-1,2.520495892E0,-1.178545833E0,1.051832676E1,1.088012259E1
5.067505380E-1,2.281075716E0,-1.030105233E0,1.003469753E1,1.034212637E1
5.092709550E-1,2.137423515E0,-8.577227592E-1,9.517550468E0,9.792243590E0
5.117913710E-1,2.056020737E0,-6.901286244E-1,9.637260437E0,9.878273509E0
5.143117880E-1,2.017713547E0,-5.512649417E-1,9.790489197E0,1.001143045E1
5.168322570E-1,1.950675845E0,-3.597288132E-1,9.905410767E0,1.010206432E1
5.193527780E-1,1.816600561E0,-1.394622475E-1,9.833584785E0,1.000094381E1
5.218733510E-1,1.610699177E0,7.122749835E-2,9.704298019E0,9.837317990E0
5.243939760E-1,1.467047095E0,2.627636492E-1,9.771335602E0,9.884344761E0
5.269146530E-1,1.376067400E0,4.542997777E-1,9.905410767E0,1.001084973E1
5.294353820E-1,1.270722508E0,6.027402878E-1,9.876680374E0,9.976314287E0
5.319561630E-1,1.194108129E0,7.272387743E-1,9.560646057E0,9.662335302E0
5.344769960E-1,1.151012421E0,8.038532138E-1,9.637260437E0,9.738983433E0
5.369978820E-1,1.174954534E0,9.044097066E-1,9.694721222E0,9.807450976E0
5.395188190E-1,1.208473325E0,9.570821524E-1,9.570222855E0,9.693584451E0
5.420398090E-1,1.289876223E0,9.427168965E-1,9.891045570E0,1.001924540E1
5.445608510E-1,1.390432596E0,9.187749028E-1,1.011610031E1,1.025245998E1
5.470818920E-1,1.433528304E0,9.283517003E-1,9.824007988E0,9.971357642E0
5.496029340E-1,1.457470298E0,9.091981053E-1,9.790489197E0,9.940047262E0
5.521239760E-1,1.534084797E0,8.565256596E-1,9.833584785E0,9.989316398E0
5.546447570E-1,1.601122379E0,7.128735781E-1,9.804854393E0,9.960268635E0
5.571651730E-1,1.625064373E0,6.506243348E-1,9.603741646E0,9.761967007E0
5.596855900E-1,1.672948480E0,5.692214370E-1,9.876680374E0,1.003352305E1
5.622060070E-1,1.730409265E0,4.159925580E-1,9.986813545E0,1.014415156E1
5.647264230E-1,1.730409265E0,2.292448133E-1,9.919775963E0,1.007218073E1
5.672468400E-1,1.653794765E0,1.286883354E-1,9.924564362E0,1.006223512E1
5.697672570E-1,1.548449993E0,5.686229095E-2,1.002512074E1,1.014415972E1
5.722876730E-1,1.438316703E0,-6.763619930E-2,9.900622368E0,1.000478150E1
5.748080900E-1,1.261145711E0,-1.346738487E-1,9.464878082E0,9.549478659E0
5.773285070E-1,1.151012421E0,-2.495955229E-1,9.656414032E0,9.727973040E0
5.798489230E-1,1.055244446E0,-3.884592354E-1,1.002033234E1,1.008322873E1
5.823693400E-1,8.684966564E-1,-4.554968774E-1,9.900622368E0,9.949074687E0
5.848897570E-1,7.583633661E-1,-5.560533404E-1,9.656414032E0,9.702094736E0
5.874101730E-1,6.865373254E-1,-6.135141850E-1,9.924564362E0,9.967181694E0
5.899305900E-1,5.907692909E-1,-6.470330358E-1,1.019750404E1,1.023507444E1
5.924510070E-1,4.423287511E-1,-6.278793812E-1,9.862315178E0,9.892176096E0
5.949714230E-1,3.513490856E-1,-6.135141850E-1,9.484031677E0,9.510347138E0
5.974918400E-1,3.082534671E-1,-6.135141850E-1,9.886257172E0,9.910070672E0
6.000122570E-1,2.460042238E-1,-5.847837925E-1,9.843161583E0,9.863585561E0
6.025326730E-1,2.364274114E-1,-5.608417392E-1,9.723451614E0,9.742481854E0
6.050531420E-1,2.603694201E-1,-5.704185367E-1,9.953294754E0,9.973025920E0
6.075736630E-1,2.890998423E-1,-5.464765429E-1,9.948506355E0,9.967697529E0
6.100942360E-1,1.885433793E-1,-4.363432527E-1,9.665990829E0,9.677671350E0
6.126149130E-1,1.550245583E-1,-3.693056107E-1,9.814431190E0,9.822600411E0
6.151356940E-1,1.358709484E-1,-2.687491477E-1,9.819219589E0,9.823836336E0
6.176565800E-1,1.310825497E-1,-1.873462796E-1,9.713874817E0,9.716565505E0
6.201775170E-1,1.262941360E-1,-1.394622475E-1,9.565434456E0,9.567284686E0
6.226985590E-1,1.215057373E-1,-1.250970364E-1,9.776124001E0,9.777679346E0
6.252196530E-1,7.841010392E-2,-9.157821536E-2,9.929352760E0,9.930084640E0
6.277407980E-1,-2.693476900E-2,-2.454056777E-2,9.824007988E0,9.824075563E0
6.302619960E-1,-1.035492271E-1,5.686229095E-2,9.809642792E0,9.810354095E0
6.327831940E-1,-1.274912357E-1,8.559270948E-2,9.943717957E0,9.944903565E0
6.353043920E-1,-1.897404790E-1,2.148796022E-1,9.728240013E0,9.732462610E0
6.378255900E-1,-2.232593149E-1,2.867056429E-1,9.680356026E0,9.687173872E0
6.403463190E-1,-2.184709013E-1,3.393780887E-1,9.833584785E0,9.841864496E0
6.428668400E-1,-1.801636815E-1,3.250128925E-1,9.747393608E0,9.754474588E0
6.453873610E-1,-1.657984704E-1,2.819172442E-1,9.761758804E0,9.767236120E0
6.479076730E-1,-1.466448605E-1,2.340332121E-1,9.886257172E0,9.890114111E0
6.504278300E-1,-7.481880486E-2,1.191115379E-1,9.919775963E0,9.920773184E0
6.529479860E-1,-7.960720360E-2,6.643909961E-2,9.914987564E0,9.915529732E0
6.554681420E-1,-1.179144308E-1,7.122749835E-2,9.843161583E0,9.844125513E0
6.579882980E-1,-2.136825025E-1,9.516951442E-2,9.833584785E0,9.836366564E0
6.605085070E-1,-2.472013235E-1,6.165069342E-2,1.004427433E1,1.004750497E1
6.630287670E-1,-2.472013235E-1,8.080431074E-2,1.001075554E1,1.001413323E1
6.655491320E-1,-3.525462151E-1,1.430535465E-1,9.761758804E0,9.769170287E0
6.680696010E-1,-3.190273643E-1,1.382651478E-1,1.003948593E1,1.004550514E1
6.705901210E-1,-2.998737693E-1,1.238999367E-1,1.024059963E1,1.024573845E1
6.731106940E-1,-3.429693878E-1,1.478419602E-1,9.876680374E0,9.883739194E0
6.756313190E-1,-3.190273643E-1,1.047463268E-1,1.007779312E1,1.008338556E1
6.781520480E-1,-3.860650361E-1,1.047463268E-1,1.023581123E1,1.024362483E1
6.806728300E-1,-4.866214991E-1,1.286883354E-1,1.002990913E1,1.004253147E1
6.831936630E-1,-4.914098978E-1,2.148796022E-1,9.934141159E0,9.948608822E0
6.857145480E-1,-4.291606545E-1,3.202244639E-1,9.675567627E0,9.690373134E0
6.882354860E-1,-4.578910768E-1,4.159925580E-1,9.776124001E0,9.795678359E0
6.907564760E-1,-4.722562730E-1,5.357026458E-1,1.006342793E1,1.008873555E1
6.932775170E-1,-5.440823436E-1,6.458359361E-1,1.038903999E1,1.042330474E1
6.957986110E-1,-6.542156339E-1,8.565256596E-1,1.048959637E1,1.054482177E1
6.983197050E-1,-7.930793166E-1,1.100734234E0,1.071465111E1,1.080020088E1
7.008407980E-1,-9.846154451E-1,1.359308004E0,1.109772301E1,1.122393165E1
7.033618920E-1,-1.190516829E0,1.589151382E0,1.169627380E1,1.186362311E1
7.058829340E-1,-1.463455796E0,1.799841166E0,1.215596104E1,1.237531898E1
7.084035590E-1,-1.722029567E0,2.005742550E0,1.295083523E1,1.321788645E1
7.109241840E-1,-1.971026540E0,2.226009130E0,1.362600040E1,1.394661067E1
7.134448090E-1,-2.258330822E0,2.451063871E0,1.423412800E1,1.461910298E1
7.159654340E-1,-2.598307371E0,2.676118851E0,1.471296787E1,1.517841352E1
7.184860590E-1,-2.933495522E0,2.920327425E0,1.513434792E1,1.569019423E1
7.210066840E-1,-3.302202702E0,3.154959202E0,1.548390102E1,1.614340426E1
7.235273090E-1,-3.661332846E0,3.346495390E0,1.579993534E1,1.656026408E1
7.260479340E-1,-4.034828186E0,3.442263603E0,1.612075806E1,1.697079425E1
7.285685590E-1,-4.403535366E0,3.466205597E0,1.639848518E1,1.732962842E1
7.310891840E-1,-4.748300552E0,3.380014181E0,1.660917664E1,1.760214767E1
7.336098090E-1,-4.997297287E0,3.236362219E0,1.672409821E1,1.775225285E1
7.361304340E-1,-5.145738125E0,3.040037632E0,1.670015526E1,1.773740780E1
7.386509030E-1,-5.241506100E0,2.858078241E0,1.663790703E1,1.767659322E1
7.411713710E-1,-5.294178486E0,2.647388458E0,1.652298355E1,1.755123861E1
7.436917360E-1,-5.313332081E0,2.431910276E0,1.642242813E1,1.743105938E1
7.462121010E-1,-5.275024891E0,2.216432333E0,1.627398682E1,1.725053932E1
7.487324650E-1,-5.169680119E0,2.077568531E0,1.610160446E1,1.703829656E1
7.512528300E-1,-5.016450882E0,2.053626537E0,1.599147129E1,1.688518035E1
7.537731940E-1,-4.863222122E0,2.077568531E0,1.585260773E1,1.671144495E1
7.562935590E-1,-4.676474571E0,2.192490101E0,1.566107178E1,1.649077307E1
7.588139230E-1,-4.441842556E0,2.350507498E0,1.545038223E1,1.624712781E1
7.613342880E-1,-4.216787815E0,2.542043686E0,1.523011589E1,1.600623990E1
7.638547050E-1,-4.001309395E0,2.743156672E0,1.498590660E1,1.575159617E1
7.663751730E-1,-3.785831451E0,2.944269657E0,1.473690987E1,1.549766937E1
7.688956940E-1,-3.503315687E0,3.116652012E0,1.459325790E1,1.532807610E1
7.714163190E-1,-3.201646328E0,3.236362219E0,1.451185513E1,1.520915904E1
7.739369960E-1,-2.832939148E0,3.265092611E0,1.443524075E1,1.506859480E1
7.764577260E-1,-2.521692991E0,3.265092611E0,1.429637718E1,1.487972331E1
7.789785070E-1,-2.291849613E0,3.265092611E0,1.416709042E1,1.471801125E1
7.814993400E-1,-2.023699045E0,3.269881010E0,1.405695629E1,1.457345188E1
7.840202260E-1,-1.755548358E0,3.298611403E0,1.398034191E1,1.447110041E1
7.865411110E-1,-1.453878999E0,3.303399801E0,1.391330433E1,1.437380436E1
7.890619960E-1,-1.128267527E0,3.312976599E0,1.384626675E1,1.428173324E1
7.915828820E-1,-8.361749649E-1,3.289034605E0,1.383190155E1,1.424213600E1
7.941036110E-1,-6.159083843E-1,3.250727415E0,1.382711315E1,1.421744105E1
7.966239760E-1,-4.387374520E-1,3.174112797E0,1.385105515E1,1.421686362E1
7.991443400E-1,-3.333925903E-1,3.073556423E0,1.391330433E1,1.425264667E1
8.016647050E-1,-2.232593149E-1,2.987365246E0,1.405216789E1,1.436793716E1
8.041850690E-1,-1.322796494E-1,2.877231836E0,1.422933960E1,1.451792225E1
8.067053820E-1,-7.003039867E-2,2.762310266E0,1.441129875E1,1.467381321E1
8.092255380E-1,-4.608838260E-2,2.671330452E0,1.465550709E1,1.489704731E1
8.117456940E-1,-2.088941038E-1,2.700061083E0,1.482310104E1,1.506845351E1
8.142658510E-1,-4.914098978E-1,2.795829058E0,1.479437065E1,1.506424730E1
8.167860070E-1,-7.212532759E-1,2.882020235E0,1.478958225E1,1.508502536E1
8.193062150E-1,-8.649053574E-1,2.996942043E0,1.480394745E1,1.512899808E1
8.218264760E-1,-9.319429994E-1,3.107075214E0,1.486140823E1,1.521130793E1
8.243467360E-1,-9.989806414E-1,3.236362219E0,1.495717621E1,1.533587698E1
8.268669960E-1,-1.109113932E0,3.341706991E0,1.515350151E1,1.555717672E1
8.293873090E-1,-1.233612418E0,3.466205597E0,1.539292145E1,1.582650977E1
8.319076210E-1,-1.358110905E0,3.581127167E0,1.565149498E1,1.611329365E1
8.344279340E-1,-1.429937005E0,3.734356165E0,1.595316410E1,1.644668905E1
8.369482460E-1,-1.473032594E0,3.906738520E0,1.628835297E1,1.681495980E1
8.394685590E-1,-1.525704980E0,4.088697910E0,1.662833023E1,1.719146860E1
8.419888710E-1,-1.597531080E0,4.289810658E0,1.694915199E1,1.755643285E1
8.445091840E-1,-1.678933978E0,4.476558685E0,1.723645592E1,1.788725271E1
8.470294960E-1,-1.736394763E0,4.624999046E0,1.752375984E1,1.820680757E1
8.495498090E-1,-1.789067268E0,4.744709015E0,1.786373711E1,1.856949457E1
8.520701210E-1,-1.865681648E0,4.840477467E0,1.824202156E1,1.896529306E1
8.545904340E-1,-1.956661344E0,4.902726650E0,1.861551666E1,1.934948870E1
8.571107460E-1,-2.052429438E0,4.964975834E0,1.899858856E1,1.974360198E1
8.596310590E-1,-2.162562609E0,4.998494625E0,1.936729622E1,2.011849369E1
8.621513710E-1,-2.291849613E0,4.993706226E0,1.968811989E1,2.044044376E1
8.646716840E-1,-2.416347980E0,4.979341030E0,1.995148087E1,2.070493090E1
8.671919960E-1,-2.545634985E0,4.950610638E0,2.016217041E1,2.091654653E1
8.697123090E-1,-2.689286947E0,4.912303448E0,2.034891891E1,2.110548484E1
8.722326730E-1,-2.828150749E0,4.830900669E0,2.046862793E1,2.122029140E1
8.747530900E-1,-2.967014551E0,4.687248230E0,2.055482101E1,2.129023575E1
8.772735590E-1,-3.072359324E0,4.452616692E0,2.063143539E1,2.132888449E1
8.797940800E-1,-3.148973703E0,4.150947094E0,2.066974258E1,2.131630023E1
8.823146530E-1,-3.182492495E0,3.825335741E0,2.058355141E1,2.117649736E1
8.848352780E-1,-3.187281132E0,3.523666382E0,2.034412956E1,2.089159145E1
8.873559550E-1,-3.192069530E0,3.255515814E0,1.993711662E1,2.045180457E1
8.898766840E-1,-3.172915697E0,3.011307240E0,1.940560341E1,1.989253149E1
8.923974650E-1,-3.172915697E0,2.838924646E0,1.879268837E1,1.926893934E1
8.949182980E-1,-3.139396906E0,2.680907249E0,1.814146423E1,1.860526273E1
8.974391840E-1,-3.096301317E0,2.498948097E0,1.752854919E1,1.797447803E1
8.999600690E-1,-3.005321741E0,2.316988707E0,1.692999840E1,1.735007900E1
9.024809550E-1,-2.861669540E0,2.091933727E0,1.632187080E1,1.670235929E1
9.050018400E-1,-2.703652382E0,1.905186057E0,1.564670658E1,1.599246375E1
9.075227260E-1,-2.536058187E0,1.708861470E0,1.500506020E1,1.531351136E1
9.100436110E-1,-2.349310398E0,1.517325282E0,1.435383797E1,1.462375464E1
9.125644960E-1,-2.162562609E0,1.344942808E0,1.362121201E1,1.385723510E1
9.150852780E-1,-1.975814939E0,1.167771935E0,1.286943245E1,1.307248360E1
9.176056420E-1,-1.793855667E0,1.019331336E0,1.208892250E1,1.226372707E1
9.201260070E-1,-1.621473074E0,8.948329091E-1,1.131320190E1,1.146378813E1
9.226463710E-1,-1.439513803E0,7.511807680E-1,1.057578754E1,1.069970816E1
9.251667360E-1,-1.219247222E0,6.123170853E-1,9.886257172E0,9.979958761E0
9.276871010E-1,-1.018134236E0,4.973953962E-1,9.258976936E0,9.328057322E0
9.302074650E-1,-8.601169586E-1,3.633201122E-1,8.655637741E0,8.705852479E0
9.327278300E-1,-6.925228238E-1,2.196680009E-1,8.100182533E0,8.132699365E0
9.352482460E-1,-5.536591411E-1,4.728548229E-2,7.578247070E0,7.598592174E0
9.377687150E-1,-4.147954583E-1,-1.203086376E-1,7.089829922E0,7.102972459E0
9.402892360E-1,-3.094505668E-1,-3.022679687E-1,6.620566368E0,6.634683460E0
9.428098610E-1,-2.041056901E-1,-4.794389009E-1,6.213551998E0,6.235362798E0
9.453305900E-1,-1.610100716E-1,-6.901286244E-1,5.806537628E0,5.849622295E0
9.478513710E-1,-9.876082093E-2,-8.768763542E-1,5.404311657E0,5.475878955E0
9.503722050E-1,-7.003039867E-2,-1.116296530E0,5.026028156E0,5.148978659E0
9.528930900E-1,-5.566519126E-2,-1.355716705E0,4.666897774E0,4.860144157E0
9.554139760E-1,-5.087678507E-2,-1.599925280E0,4.283825397E0,4.573129058E0
9.579348610E-1,-7.481880486E-2,-1.858499050E0,3.838503838E0,4.265410682E0
9.604556420E-1,-1.131260321E-1,-2.078765631E0,3.316567898E0,3.915825158E0
9.629764230E-1,-1.849520802E-1,-2.289455414E0,2.741959572E0,3.576891899E0
9.654972050E-1,-2.615665495E-1,-2.500145197E0,2.095525026E0,3.272669889E0
9.680179860E-1,-3.525462151E-1,-2.701258183E0,1.429937005E0,3.076654748E0
9.705387670E-1,-4.626794755E-1,-2.916736126E0,7.068880796E-1,3.036628506E0
9.730594440E-1,-5.249287486E-1,-3.122637510E0,-6.404489279E-2,3.167099140E0
9.755801210E-1,-5.440823436E-1,-3.314173698E0,-8.541314602E-1,3.465445635E0
9.781007980E-1,-5.488707423E-1,-3.567959070E0,-1.615487576E0,3.954919863E0
9.806214760E-1,-5.105634928E-1,-3.860051632E0,-2.395997286E0,4.571813281E0
9.831421530E-1,-4.435258508E-1,-4.161721230E0,-3.200449228E0,5.268729831E0
9.856628300E-1,-3.764882088E-1,-4.501697540E0,-4.067150116E0,6.078547045E0
9.881834550E-1,-2.998737693E-1,-4.846462727E0,-4.905120850E0,6.902053012E0
9.907036630E-1,-2.328361124E-1,-5.191227913E0,-5.762245178E0,7.759286655E0
9.932238710E-1,-2.328361124E-1,-5.488108635E0,-6.686406612E0,8.653414495E0
9.957440800E-1,-2.663549483E-1,-5.727529049E0,-7.658452511E0,9.566996855E0
9.982642880E-1,-3.525462151E-1,-5.933430195E0,-8.659229279E0,1.050295836E1
1.000784496E0,-4.578910768E-1,-6.120178223E0,-9.636063576E0,1.142453356E1
1.003304757E0,-5.823895931E-1,-6.292560577E0,-1.065599346E1,1.238893429E1
1.005825069E0,-6.781576276E-1,-6.431424141E0,-1.172380733E1,1.338920359E1
1.008345486E0,-7.978677154E-1,-6.527192593E0,-1.273416042E1,1.433177162E1
1.010866007E0,-9.463081956E-1,-6.608595371E0,-1.366311073E1,1.520689406E1
1.013386684E0,-1.118690729E0,-6.656479359E0,-1.456333065E1,1.605150417E1
1.015907517E0,-1.319803715E0,-6.723516941E0,-1.543003178E1,1.688293347E1
1.018428455E0,-1.520916581E0,-6.785766125E0,-1.625842476E1,1.768321760E1
1.020949496E0,-1.683722377E0,-6.848015308E0,-1.699105072E1,1.839635940E1
1.023470642E0,-1.822586060E0,-6.915052891E0,-1.773325348E1,1.912088009E1
1.025991840E0,-2.018910646E0,-6.943783283E0,-1.834138107E1,1.971543523E1
1.028513038E0,-2.176927805E0,-6.967725277E0,-1.893514252E1,2.029354164E1
1.031034236E0,-2.344521999E0,-6.991667747E0,-1.946665573E1,2.081660123E1
1.033555434E0,-2.430713177E0,-7.044340134E0,-1.987367058E1,2.122484103E1
1.036076528E0,-2.459443808E0,-7.106589317E0,-2.014660835E1,2.150437871E1
1.038596684E0,-2.469020605E0,-7.202357292E0,-2.036687469E1,2.174349554E1
1.041116840E0,-2.497750998E0,-7.307702065E0,-2.047221947E1,2.188042594E1
1.043636996E0,-2.536058187E0,-7.441777229E0,-2.049137306E1,2.194784749E1
1.046157153E0,-2.574365377E0,-7.575852871E0,-2.036687469E1,2.188219570E1
1.048677309E0,-2.583942175E0,-7.738658428E0,-2.018970490E1,2.177585303E1
1.051197465E0,-2.531269789E0,-7.911040783E0,-1.989282417E1,2.155728059E1
1.053717673E0,-2.406771183E0,-8.049904823E0,-1.945707893E1,2.119366499E1
1.056237934E0,-2.272696018E0,-8.169614792E0,-1.889683533E1,2.071227024E1
1.058758246E0,-2.124255419E0,-8.217498779E0,-1.826476669E1,2.014054244E1
1.061278611E0,-2.009333849E0,-8.231863976E0,-1.751777458E1,1.945953322E1
1.063799028E0,-1.923142552E0,-8.179191589E0,-1.658882523E1,1.859534282E1
1.066319548E0,-1.856104851E0,-8.102577209E0,-1.549228096E1,1.758145762E1
1.068840173E0,-1.798644066E0,-7.992444038E0,-1.425687218E1,1.644301330E1
1.071360903E0,-1.760336757E0,-7.839214802E0,-1.297836876E1,1.526401421E1
1.073881684E0,-1.760336757E0,-7.671620846E0,-1.166155815E1,1.406927469E1
1.076402517E0,-1.851316452E0,-7.475296021E0,-1.035432339E1,1.290424101E1
1.078923351E0,-2.081159830E0,-7.283760071E0,-9.109338760E0,1.184754994E1
1.081444184E0,-2.378040791E0,-7.063493729E0,-7.921814919E0,1.087672622E1
1.083965017E0,-2.698863983E0,-6.828861713E0,-6.911461830E0,1.008392402E1
1.086485851E0,-2.995744944E0,-6.565499783E0,-5.987299919E0,9.376995014E0
1.089006684E0,-3.254318714E0,-6.326079369E0,-5.087080002E0,8.745756309E0
1.091527517E0,-3.441066504E0,-6.081871033E0,-4.086303711E0,8.094934957E0
1.094048351E0,-3.565564871E0,-5.880757809E0,-2.989759445E0,7.499015055E0
1.096568976E0,-3.670909643E0,-5.717952251E0,-1.816600561E0,7.033533476E0
1.099089444E0,-3.690063477E0,-5.512050629E0,-6.769605279E-1,6.667649222E0
1.101609913E0,-3.666121244E0,-5.286995888E0,4.004302323E-1,6.446170558E0
1.104130382E0,-3.579930067E0,-4.994903088E0,1.377264500E0,6.297762590E0
1.106650851E0,-3.493738890E0,-4.650138378E0,2.291849613E0,6.251605635E0
1.109171319E0,-3.421912670E0,-4.262277603E0,3.192069530E0,6.329755491E0
1.111691788E0,-3.436278105E0,-3.864840031E0,4.164115429E0,6.639642534E0
1.114212257E0,-3.560776472E0,-3.529651880E0,5.241506100E0,7.253341139E0
1.116732726E0,-3.723582268E0,-3.256712914E0,6.452971935E0,8.130934184E0
1.119253246E0,-3.857657433E0,-3.079541922E0,7.788936615E0,9.221314055E0
1.121773819E0,-3.991732836E0,-2.902370930E0,9.100958824E0,1.035302562E1
1.124294444E0,-4.039616585E0,-2.648585558E0,9.905410767E0,1.102046596E1
1.126815121E0,-4.183269024E0,-2.399588585E0,1.097801304E1,1.199060196E1
1.129335851E0,-4.446630955E0,-2.131438017E0,1.214159584E1,1.310472832E1
1.131856684E0,-4.800972939E0,-1.796249866E0,1.330996609E1,1.426292579E1
1.134377621E0,-5.241506100E0,-1.456273198E0,1.458368111E1,1.556527778E1
1.136898663E0,-5.672462463E0,-1.125873327E0,1.596274090E1,1.697803045E1
1.139419809E0,-5.954977989E0,-8.194155097E-1,1.730828285E1,1.832238685E1
1.141941007E0,-6.199186802E0,-5.416881442E-1,1.868255424E1,1.969165245E1
1.144462257E0,-6.429029942E0,-3.118447661E-1,2.004246140E1,2.105065158E1
1.146983507E0,-6.553528786E0,-8.200141042E-2,2.124913788E1,2.223693604E1
1.149504757E0,-6.668450356E0,1.622071713E-1,2.239356613E1,2.336592274E1
1.152026007E0,-6.721122742E0,4.112041295E-1,2.347574615E1,2.442239213E1
1.154547101E0,-6.745064735E0,6.745663285E-1,2.448131180E1,2.540247164E1
1.157067778E0,-6.697180748E0,9.666589499E-1,2.547251129E1,2.635593844E1
1.159588455E0,-6.591835976E0,1.287482023E0,2.641582680E1,2.725629866E1
1.162109132E0,-6.457760334E0,1.603516579E0,2.736392975E1,2.816129587E1
1.164629705E0,-6.108207226E0,1.933916450E0,2.824978447E1,2.896723237E1
1.167150278E0,-5.715558052E0,2.302623510E0,2.914042664E1,2.978479719E1
1.169670851E0,-5.327697277E0,2.656965256E0,2.995445633E1,3.054035489E1
1.172191423E0,-5.035604954E0,2.996942043E0,3.062962151E1,3.118513576E1
1.174711996E0,-4.686051369E0,3.394379377E0,3.109409523E1,3.162789350E1
1.177232569E0,-4.413112164E0,3.676895142E0,3.170701218E1,3.222312427E1
1.179753142E0,-4.173692226E0,3.810970545E0,3.257371140E1,3.306039742E1
1.182273455E0,-4.001309395E0,3.705625772E0,3.362716293E1,3.406652648E1
1.184793767E0,-3.742735863E0,3.418321371E0,3.454174805E1,3.491167929E1
1.187314080E0,-3.555988073E0,3.107075214E0,3.522169876E1,3.553684048E1
1.189834392E0,-3.292625904E0,2.910750628E0,3.553294754E1,3.580368997E1
1.192354757E0,-3.048417330E0,2.858078241E0,3.549464035E1,3.573976711E1
1.194875173E0,-2.813785553E0,2.905962229E0,3.528395081E1,3.551505582E1
1.197395694E0,-2.512116194E0,3.006518841E0,3.498706818E1,3.520574986E1
1.199916319E0,-2.162562609E0,3.154959202E0,3.462793732E1,3.483854887E1
1.202437048E0,-1.793855667E0,3.245939016E0,3.425923157E1,3.445938168E1
1.204957882E0,-1.439513803E0,3.274669409E0,3.395277405E1,3.414068724E1
1.207478819E0,-1.042076349E0,3.178901196E0,3.371335220E1,3.387892343E1
1.209999861E0,-5.919663906E-1,3.083133221E0,3.341168213E1,3.355885334E1
1.212520955E0,-1.274912357E-1,3.049614429E0,3.300466919E1,3.314550634E1
1.215042101E0,3.465606868E-1,3.150170803E0,3.253061676E1,3.268462494E1
1.217563246E0,7.392097712E-1,3.336918592E0,3.207093048E1,3.225253538E1
1.220084392E0,1.069609642E0,3.561973572E0,3.164476204E1,3.186255930E1
1.222605486E0,1.356913805E0,3.772663355E0,3.133830452E1,3.159372618E1
1.225126007E0,1.644217968E0,3.916315317E0,3.118028641E1,3.146825764E1
1.227646476E0,1.945887446E0,3.992929935E0,3.109409523E1,3.140975526E1
1.230166944E0,2.276287317E0,4.021660328E0,3.110367203E1,3.144508943E1
1.232687309E0,2.601898670E0,4.059967518E0,3.115155602E1,3.152257374E1
1.235207673E0,2.922721624E0,4.107851505E0,3.118507576E1,3.158996195E1
1.237728038E0,3.267486811E0,4.131793499E0,3.126169014E1,3.170238884E1
1.240248403E0,3.583521366E0,4.213196278E0,3.135745811E1,3.184152678E1
1.242768767E0,3.880402327E0,4.328118324E0,3.141013145E1,3.194348898E1
1.245289132E0,4.105457306E0,4.447828293E0,3.143886185E1,3.201624573E1
1.247809496E0,4.258686066E0,4.538807869E0,3.149153328E1,3.210068305E1
1.250329861E0,4.320935726E0,4.610633850E0,3.151547623E1,3.214270791E1
1.252850226E0,4.292205334E0,4.692036629E0,3.150111008E1,3.213655505E1
1.255370642E0,4.134187698E0,4.797381878E0,3.138618851E1,3.201873217E1
1.257891111E0,3.904344320E0,4.921880245E0,3.122338295E1,3.184915152E1
1.260411632E0,3.612251759E0,5.075109005E0,3.101748085E1,3.163683316E1
1.262932205E0,3.291428804E0,5.237914562E0,3.083552170E1,3.144993881E1
1.265452830E0,2.917933226E0,5.419874191E0,3.066792870E1,3.127956555E1
1.267973507E0,2.549226284E0,5.558737755E0,3.048118019E1,3.108859061E1
1.270494236E0,2.185307503E0,5.601833344E0,3.025612450E1,3.084783907E1
1.273015017E0,1.859696150E0,5.563526154E0,3.010289574E1,3.066913146E1
1.275535798E0,1.534084797E0,5.415085793E0,2.991135979E1,3.043626151E1
1.278056580E0,1.265934110E0,5.194818974E0,2.970067024E1,3.017811369E1
1.280577361E0,1.021725535E0,4.907515049E0,2.939421272E1,2.981857422E1
1.283098142E0,7.870938182E-1,4.577115059E0,2.901114082E1,2.938053422E1
1.285618715E0,5.859808922E-1,4.232349873E0,2.858018494E1,2.889780493E1
1.288139236E0,3.752911091E-1,3.839700937E0,2.819232368E1,2.845507444E1
1.290659757E0,1.358709484E-1,3.360860586E0,2.795769119E1,2.815930293E1
1.293180278E0,-7.481880486E-2,2.810194254E0,2.780446243E1,2.794621478E1
1.295700798E0,-2.615665495E-1,2.245162725E0,2.756983185E1,2.766233542E1
1.298221319E0,-4.483142793E-1,1.747168660E0,2.718675804E1,2.724653000E1
1.300741840E0,-6.446388364E-1,1.325789213E0,2.663609314E1,2.667685765E1
1.303262361E0,-8.601169586E-1,1.009754539E0,2.588431358E1,2.591827724E1
1.305782569E0,-1.042076349E0,7.894880176E-1,2.507986069E1,2.511391301E1
1.308302778E0,-1.137844324E0,6.554127336E-1,2.434723473E1,2.438261869E1
1.310822986E0,-1.171363235E0,5.787982345E-1,2.359545708E1,2.363160371E1
1.313343194E0,-1.142632723E0,5.931634903E-1,2.293944550E1,2.297554378E1
1.315863403E0,-1.051653147E0,6.362590790E-1,2.235047150E1,2.238424392E1
1.318383663E0,-9.271546006E-1,6.937199235E-1,2.184768867E1,2.187835376E1
1.320903923E0,-7.978677154E-1,7.272387743E-1,2.145025063E1,2.147740024E1
1.323424236E0,-6.685808301E-1,7.703344226E-1,2.105281448E1,2.107750965E1
1.325944548E0,-5.584475398E-1,7.655459642E-1,2.071283722E1,2.073450144E1
1.328464913E0,-4.243722558E-1,7.224503756E-1,2.039201355E1,2.040921956E1
1.330985330E0,-2.519897223E-1,6.458359361E-1,2.006640244E1,2.007837418E1
1.333505798E0,-5.566519126E-2,5.357026458E-1,1.979825211E1,1.980557655E1
1.336026319E0,1.262941360E-1,3.776853085E-1,1.961150551E1,1.961554854E1
1.338546892E0,3.274070919E-1,2.005143911E-1,1.944391060E1,1.944770066E1
1.341067517E0,5.093663931E-1,4.728548229E-2,1.924758530E1,1.925438209E1
1.343588194E0,6.961141229E-1,-7.242459804E-2,1.903689575E1,1.904975643E1
1.346108923E0,8.349778652E-1,-1.969230920E-1,1.879747581E1,1.881704184E1
1.348629705E0,9.738415480E-1,-3.022679687E-1,1.851974869E1,1.854779838E1
1.351150538E0,1.112705231E0,-4.124012291E-1,1.818456078E1,1.822323896E1
1.353671423E0,1.208473325E0,-5.081692934E-1,1.780148888E1,1.784969608E1
1.356192361E0,1.261145711E0,-6.183025837E-1,1.739447403E1,1.745108917E1
1.358713298E0,1.294664621E0,-7.428010702E-1,1.694915199E1,1.701474840E1
1.361234236E0,1.280299306E0,-8.481459618E-1,1.645594597E1,1.652745218E1
1.363755173E0,1.222838521E0,-9.726444483E-1,1.593879890E1,1.601520158E1
1.366275851E0,1.179742932E0,-1.116296530E0,1.539770985E1,1.548313211E1
1.368796215E0,1.122282028E0,-1.274313807E0,1.480873585E1,1.490577237E1
1.371316580E0,1.074398041E0,-1.441908002E0,1.423891640E1,1.435200927E1
1.373836944E0,1.045667648E0,-1.628655672E0,1.364515400E1,1.378173312E1
1.376357309E0,1.026513934E0,-1.868075848E0,1.310885239E1,1.328101838E1
1.378877673E0,1.012148738E0,-2.121861219E0,1.251987934E1,1.273868591E1
1.381398090E0,9.738415480E-1,-2.370858192E0,1.189259815E1,1.216565768E1
1.383918559E0,9.355342984E-1,-2.629431963E0,1.127489471E1,1.161517919E1
1.386439080E0,9.259575009E-1,-2.897582531E0,1.068113232E1,1.110585293E1
1.388959653E0,9.355342984E-1,-3.146579504E0,1.012088871E1,1.063995185E1
1.391480278E0,9.403226972E-1,-3.390788078E0,9.560646057E0,1.018762011E1
1.394000955E0,9.307458997E-1,-3.625419855E0,8.976460457E0,9.725574502E0
1.396521632E0,9.115923047E-1,-3.836109638E0,8.334815025E0,9.220405587E0
1.399042309E0,8.637082577E-1,-4.003703594E0,7.654861450E0,8.681735901E0
1.401562986E0,8.301894665E-1,-4.161721230E0,6.946177483E0,8.139933646E0
1.404083663E0,8.254010081E-1,-4.334103584E0,6.232705593E0,7.636252989E0
1.406604392E0,8.780734539E-1,-4.535216331E0,5.552752495E0,7.223036787E0
1.409125173E0,9.690531492E-1,-4.741117954E0,4.872798920E0,6.867418203E0
1.411646007E0,1.127070427E0,-4.947019100E0,4.149750233E0,6.554671061E0
1.414166892E0,1.299453020E0,-5.143343925E0,3.369240284E0,6.284452640E0
1.416687830E0,1.505354285E0,-5.282207489E0,2.579153776E0,6.067935537E0
1.419208819E0,1.696890473E0,-5.411494255E0,1.817797661E0,5.955509692E0
1.421729861E0,1.893214941E0,-5.502473831E0,1.046864748E0,5.912478911E0
1.424250903E0,2.118269920E0,-5.593453884E0,2.759317458E-1,5.987481285E0
1.426771944E0,2.328959703E0,-5.646126270E0,-4.566939771E-1,6.124652198E0
1.429292986E0,2.534861088E0,-5.684433460E0,-1.165377736E0,6.332172594E0
1.431813767E0,2.712032080E0,-5.684433460E0,-1.807023764E0,6.552345889E0
1.434334288E0,2.870049238E0,-5.636549473E0,-2.419939280E0,6.772294936E0
1.436854809E0,2.970605850E0,-5.622184277E0,-3.008913040E0,7.034700622E0
1.439375330E0,3.023278236E0,-5.574300289E0,-3.550002575E0,7.267430997E0
1.441895851E0,3.004124641E0,-5.531204700E0,-4.071938515E0,7.496644154E0
1.444416371E0,2.946663857E0,-5.483320236E0,-4.589086056E0,7.733649819E0
1.446936892E0,2.865260839E0,-5.416282654E0,-5.067926407E0,7.951711484E0
1.449457413E0,2.755127668E0,-5.363610268E0,-5.541978359E0,8.189784350E0
1.451977934E0,2.601898670E0,-5.310937881E0,-6.016030312E0,8.436145955E0
1.454498455E0,2.458246708E0,-5.263053894E0,-6.490082264E0,8.709987426E0
1.457018976E0,2.300229311E0,-5.172074318E0,-6.973711014E0,8.981873576E0
1.459539496E0,2.137423515E0,-5.076306343E0,-7.423820972E0,9.243948464E0
1.462060017E0,1.969829440E0,-4.985326290E0,-7.883507729E0,9.533278573E0
1.464580538E0,1.830965757E0,-4.870404720E0,-8.319252014E0,9.812401939E0
1.467101059E0,1.730409265E0,-4.755483150E0,-8.716690063E0,1.007916772E1
1.469621580E0,1.663371682E0,-4.635773182E0,-9.104550362E0,1.035133014E1
1.472142101E0,1.625064373E0,-4.525639534E0,-9.463681221E0,1.061524892E1
1.474662621E0,1.605910778E0,-4.401141167E0,-9.832387924E0,1.089150335E1
1.477183142E0,1.601122379E0,-4.286219597E0,-1.020588303E1,1.118460190E1
1.479703663E0,1.577180386E0,-4.190451622E0,-1.059853268E1,1.150548902E1
1.482224184E0,1.529296279E0,-4.094683647E0,-1.100075817E1,1.183730804E1
1.484744705E0,1.471835494E0,-3.994127035E0,-1.139819527E1,1.216709521E1
1.487265226E0,1.414374709E0,-3.912724018E0,-1.179084492E1,1.250335511E1
1.489785746E0,1.390432596E0,-3.831321239E0,-1.213082123E1,1.279723208E1
1.492306267E0,1.404797792E0,-3.769072056E0,-1.246122169E1,1.309432729E1
1.494826788E0,1.347337008E0,-3.745130062E0,-1.256656647E1,1.318180219E1
1.497347361E0,1.356913805E0,-3.730764866E0,-1.260966206E1,1.321981084E1
1.499867986E0,1.332971811E0,-3.740341663E0,-1.267191124E1,1.327946927E1
1.502388611E0,1.304241419E0,-3.764283657E0,-1.273416042E1,1.334277778E1
1.504909288E0,1.313818216E0,-3.793014050E0,-1.276767921E1,1.338382256E1
1.507429965E0,1.309029818E0,-3.845686436E0,-1.277246761E1,1.340293968E1
1.509950694E0,1.280299306E0,-3.864840031E0,-1.275810242E1,1.339198761E1
1.512471423E0,1.232415318E0,-3.903147221E0,-1.271979523E1,1.336213293E1
1.514992153E0,1.151012421E0,-3.927089453E0,-1.269585323E1,1.333909856E1
1.517512882E0,1.079186440E0,-3.951031446E0,-1.264796925E1,1.329460112E1
1.520033611E0,9.977835417E-1,-3.927089453E0,-1.259050846E1,1.322643213E1
1.522554340E0,9.259575009E-1,-3.922300816E0,-1.251868248E1,1.315139734E1
1.525074965E0,8.445546627E-1,-3.931877851E0,-1.244206810E1,1.307585541E1
1.527595486E0,8.062474132E-1,-3.917512417E0,-1.233672237E1,1.296887263E1
1.530116007E0,7.727286220E-1,-3.912724018E0,-1.224095440E1,1.287429545E1
1.532636528E0,7.392097712E-1,-3.907935619E0,-1.215476322E1,1.278892728E1
1.535157048E0,7.056909800E-1,-3.927089453E0,-1.207336044E1,1.271558350E1
1.537677569E0,7.056909800E-1,-3.931877851E0,-1.198238087E1,1.263072106E1
1.540198090E0,7.248445749E-1,-3.941454649E0,-1.189618969E1,1.255307905E1
1.542718611E0,7.583633661E-1,-3.907935619E0,-1.182436371E1,1.247648400E1
1.545239132E0,8.014590144E-1,-3.874416828E0,-1.171901894E1,1.236886604E1
1.547759653E0,8.062474132E-1,-3.840898037E0,-1.160409737E1,1.224980034E1
1.550280173E0,7.583633661E-1,-3.773860455E0,-1.144608021E1,1.207600471E1
1.552800694E0,6.625953317E-1,-3.702034473E0,-1.127848530E1,1.188900006E1
1.555321007E0,4.950011969E-1,-3.630208254E0,-1.110131454E1,1.169027899E1
1.557841163E0,2.843114436E-1,-3.544017076E0,-1.088104820E1,1.144718743E1
1.560361319E0,4.010287672E-2,-3.467402697E0,-1.067993546E1,1.122878048E1
1.562881476E0,-2.328361124E-1,-3.409941673E0,-1.042136192E1,1.096752931E1
1.565401632E0,-5.249287486E-1,-3.362057686E0,-1.018194103E1,1.073549744E1
1.567921788E0,-7.787141204E-1,-3.318962097E0,-9.918579102E0,1.048809403E1
1.570441944E0,-9.798270464E-1,-3.261501312E0,-9.650428772E0,1.023368103E1
1.572962153E0,-1.156997919E0,-3.184886694E0,-9.329605103E0,9.925909470E0
1.575482413E0,-1.338957310E0,-3.089118719E0,-8.989628792E0,9.599421178E0
1.578002726E0,-1.535281897E0,-2.969408751E0,-8.544307709E0,9.174948123E0
1.580523090E0,-1.702875972E0,-2.816179752E0,-8.055890083E0,8.702184784E0
1.583043507E0,-1.903988957E0,-2.672527552E0,-7.495646954E0,8.182438556E0
1.585563976E0,-2.143409014E0,-2.519298792E0,-6.911461830E0,7.662204202E0
1.588084496E0,-2.425924778E0,-2.366069794E0,-6.365583897E0,7.211383754E0
1.590605069E0,-2.684498549E0,-2.241571426E0,-5.829282761E0,6.797919713E0
1.593125694E0,-2.895188332E0,-2.150591612E0,-5.340865612E0,6.444532973E0
1.595646423E0,-3.034052134E0,-2.131438017E0,-4.876390457E0,6.125984350E0
1.598167257E0,-3.134608507E0,-2.136226416E0,-4.435857296E0,5.836614065E0
1.600688194E0,-3.216011524E0,-2.141014814E0,-4.067150116E0,5.609668852E0
1.603209184E0,-3.259107113E0,-2.141014814E0,-3.765480757E0,5.420753540E0
1.605730226E0,-3.283049107E0,-2.102707624E0,-3.535637379E0,5.263128581E0
1.608251267E0,-3.283049107E0,-2.021304846E0,-3.320159197E0,5.087980131E0
1.610772257E0,-3.235165119E0,-1.892017841E0,-3.114257812E0,4.872845840E0
1.613292413E0,-3.129820108E0,-1.734000564E0,-2.884414434E0,4.595908887E0
1.615812569E0,-3.010110140E0,-1.571194887E0,-2.644994259E0,4.304115595E0
1.618332726E0,-2.899976730E0,-1.422754407E0,-2.348113298E0,3.993461055E0
1.620852882E0,-2.852092743E0,-1.317409515E0,-2.022501945E0,3.736377251E0
1.623373038E0,-2.813785553E0,-1.264737010E0,-1.634641171E0,3.491274925E0
1.625893246E0,-2.770689964E0,-1.250371814E0,-1.270722508E0,3.294675742E0
1.628413507E0,-2.727594376E0,-1.231218219E0,-8.972271085E-1,3.124209638E0
1.630933819E0,-2.660556555E0,-1.207276225E0,-5.572504401E-1,2.974324313E0
1.633454184E0,-2.612672567E0,-1.159392118E0,-2.890998423E-1,2.872947397E0
1.635974601E0,-2.650979757E0,-1.092354536E0,2.214636654E-2,2.867302315E0
1.638495069E0,-2.799420357E0,-1.010951638E0,3.956418335E-1,3.002550584E0
1.641015590E0,-3.067570925E0,-8.864531517E-1,8.457517624E-1,3.303193396E0
1.643536163E0,-3.383605480E0,-7.428010702E-1,1.286284804E0,3.695276454E0
1.646056788E0,-3.680486679E0,-5.991489887E-1,1.750759959E0,4.119480810E0
1.648577465E0,-3.915118217E0,-4.890156984E-1,2.196081400E0,4.515535464E0
1.651098194E0,-4.039616585E0,-4.076128304E-1,2.617460966E0,4.830709294E0
1.653618923E0,-4.097077847E0,-3.262099922E-1,2.995744944E0,5.085955919E0
1.656139653E0,-4.087501049E0,-2.352303118E-1,3.302202702E0,5.259994373E0
1.658660382E0,-4.015674591E0,-1.586158574E-1,3.560776472E0,5.369351031E0
1.661181111E0,-3.934272051E0,-1.011550203E-1,3.857657433E0,5.510920955E0
1.663701840E0,-3.814561844E0,-9.157821536E-2,4.250306606E0,5.711775107E0
1.666222309E0,-3.642179251E0,-1.011550203E-1,4.810549736E0,6.034657471E0
1.668742517E0,-3.412335873E0,-1.059434265E-1,5.452195644E0,6.432860753E0
1.671262726E0,-3.144185305E0,-9.157821536E-2,6.112995625E0,6.874809329E0
1.673782934E0,-2.919130325E0,-5.985504249E-4,6.773795128E0,7.376016720E0
1.676303142E0,-2.751536369E0,1.669955701E-1,7.468113422E0,7.960625478E0
1.678823351E0,-2.655768156E0,4.064157307E-1,8.195950508E0,8.625072926E0
1.681343559E0,-2.655768156E0,7.176619768E-1,8.957306862E0,9.370244897E0
1.683863819E0,-2.718017578E0,1.043273449E0,9.737816811E0,1.016371562E1
1.686384132E0,-2.837727547E0,1.378461599E0,1.055663395E1,1.101795690E1
1.688904496E0,-3.019686937E0,1.684919477E0,1.145685387E1,1.196732900E1
1.691424913E0,-3.244741917E0,1.909974456E0,1.245284176E1,1.300959724E1
1.693945330E0,-3.522469282E0,2.077568531E0,1.349671364E1,1.410267208E1
1.696465798E0,-3.838503838E0,2.192490101E0,1.465071869E1,1.530309389E1
1.698986267E0,-4.173692226E0,2.283469915E0,1.583345413E1,1.653276176E1
1.701506736E0,-4.547187805E0,2.388814688E0,1.699703598E1,1.775619849E1
1.704027257E0,-4.968566895E0,2.498948097E0,1.809836960E1,1.893363094E1
1.706547830E0,-5.394734859E0,2.642600060E0,1.918533707E1,2.010382197E1
1.709068455E0,-5.792172432E0,2.776675463E0,2.019090080E1,2.118800754E1
1.711589080E0,-6.127360821E0,2.915539026E0,2.111027527E1,2.217405331E1
1.714109705E0,-6.390722752E0,3.040037632E0,2.198176384E1,2.309288002E1
1.716630330E0,-6.567893982E0,3.221997023E0,2.280058098E1,2.394545863E1
1.719150955E0,-6.687603951E0,3.423109770E0,2.363855171E1,2.480368630E1
1.721671580E0,-6.716334343E0,3.672106743E0,2.460102081E1,2.576438899E1
1.724192205E0,-6.749853134E0,4.031237125E0,2.564489365E1,2.682297448E1
1.726712673E0,-6.764218330E0,4.476558685E0,2.666961098E1,2.787583859E1
1.729232934E0,-6.773795128E0,5.008071423E0,2.761292648E1,2.886933994E1
1.731753194E0,-6.740276337E0,5.558737755E0,2.841259003E1,2.972551366E1
1.734273455E0,-6.591835976E0,6.147711277E0,2.910690880E1,3.047062184E1
1.736793715E0,-6.275801182E0,6.693589211E0,2.968630600E1,3.107195811E1
1.739313976E0,-5.777807236E0,7.148487568E0,3.011726189E1,3.148862326E1
1.741834236E0,-5.117007732E0,7.545925140E0,3.041414261E1,3.175129643E1
1.744354392E0,-4.346074581E0,7.818864346E0,3.058652496E1,3.186782881E1
1.746874548E0,-3.517680883E0,8.005612373E0,3.068229294E1,3.190402809E1
1.749394705E0,-2.627037764E0,8.082226753E0,3.079721451E1,3.194827285E1
1.751914861E0,-1.736394763E0,8.077438354E0,3.084988785E1,3.193705774E1
1.754435017E0,-8.553285599E-1,8.000823975E0,3.080200386E1,3.183564375E1
1.756955173E0,-9.397241473E-2,7.861959934E0,3.069186974E1,3.168296250E1
1.759475330E0,5.380968451E-1,7.565078735E0,3.054343033E1,3.147095646E1
1.761995486E0,1.021725535E0,7.215525150E0,3.026091385E1,3.112604429E1
1.764515642E0,1.371279001E0,6.865972042E0,2.977249718E1,3.058469497E1
1.767035851E0,1.591545582E0,6.607398033E0,2.916436958E1,2.994580403E1
1.769556059E0,1.663371682E0,6.439804077E0,2.856581879E1,2.932991450E1
1.772076319E0,1.605910778E0,6.348824501E0,2.806303596E1,2.881701771E1
1.774596632E0,1.443105102E0,6.253056526E0,2.767038727E1,2.840481649E1
1.777116996E0,1.270722508E0,6.095038891E0,2.739266014E1,2.809131653E1
1.779637361E0,1.122282028E0,5.836465359E0,2.724900818E1,2.788964488E1
1.782157726E0,1.064821243E0,5.472546577E0,2.726337242E1,2.782757780E1
1.784678090E0,1.079186440E0,5.079897404E0,2.743096733E1,2.791823722E1
1.787198455E0,1.174954534E0,4.692036629E0,2.775657845E1,2.817487130E1
1.789718871E0,1.342548609E0,4.332906723E0,2.817317009E1,2.853601287E1
1.792239288E0,1.596333981E0,4.026448727E0,2.864722252E1,2.897281363E1
1.794759705E0,1.969829440E0,3.839700937E0,2.907338905E1,2.939192886E1
1.797280121E0,2.395997286E0,3.787028551E0,2.941815567E1,2.975752462E1
1.799800590E0,2.860472441E0,3.839700937E0,2.964799881E1,3.003214011E1
1.802321111E0,3.348889589E0,3.973776340E0,2.983474541E1,3.028395604E1
1.804841632E0,3.851671934E0,4.146158695E0,2.995445633E1,3.048434783E1
1.807362153E0,4.373608112E0,4.246715069E0,3.002628136E1,3.063887415E1
1.809882673E0,4.862025261E0,4.342483521E0,3.010768509E1,3.080534295E1
1.812403194E0,5.283404827E0,4.399944305E0,3.024654770E1,3.101818054E1
1.814923663E0,5.585073948E0,4.414309502E0,3.044287300E1,3.126415993E1
1.817443923E0,5.747879505E0,4.438251495E0,3.062483215E1,3.147406138E1
1.819964184E0,5.786187172E0,4.443039894E0,3.081158066E1,3.166345004E1
1.822484444E0,5.747879505E0,4.395155907E0,3.101269341E1,3.184560671E1
1.825004705E0,5.594650745E0,4.371213913E0,3.119465256E1,3.199240498E1
1.827524965E0,5.374384403E0,4.356848717E0,3.136224747E1,3.211629967E1
1.830045226E0,5.048772812E0,4.347271919E0,3.152505302E1,3.222138806E1
1.832565486E0,4.684854031E0,4.304176331E0,3.167349243E1,3.230609716E1
1.835085746E0,4.311358929E0,4.198831081E0,3.184108734E1,3.240482744E1
1.837606007E0,3.889979124E0,4.059967518E0,3.202783585E1,3.251764971E1
1.840126267E0,3.454234600E0,3.911526918E0,3.222415924E1,3.264396144E1
1.842646528E0,3.042431831E0,3.801393747E0,3.242048264E1,3.278406137E1
1.845166788E0,2.635417461E0,3.729567766E0,3.262159729E1,3.293969810E1
1.847687048E0,2.247556925E0,3.715202570E0,3.278440094E1,3.307069983E1
1.850207309E0,1.878849745E0,3.724779367E0,3.289932251E1,3.316277249E1
1.852727569E0,1.543661594E0,3.748721361E0,3.298551559E1,3.323371845E1
1.855247621E0,1.213261724E0,3.739144564E0,3.310043716E1,3.333304886E1
1.857767517E0,1.026513934E0,3.696048975E0,3.322972488E1,3.345039798E1
1.860287413E0,8.301894665E-1,3.638587952E0,3.329197311E1,3.350050762E1
1.862807309E0,7.344213724E-1,3.552396774E0,3.326324463E1,3.346045936E1
1.865327205E0,6.386532784E-1,3.408744574E0,3.311480331E1,3.329590990E1
1.867847153E0,5.572504401E-1,3.169324398E0,3.298072815E1,3.313734411E1
1.870367153E0,5.189431906E-1,2.838924646E0,3.283228683E1,3.295888126E1
1.872887205E0,5.285200477E-1,2.537255287E0,3.253540421E1,3.263846695E1
1.875407361E0,5.955576897E-1,2.307411909E0,3.198473930E1,3.207339064E1
1.877927621E0,6.530185342E-1,2.144606113E0,3.125690079E1,3.133719221E1
1.880447934E0,6.817489266E-1,2.010530949E0,3.045723915E1,3.053113874E1
1.882968298E0,6.338648796E-1,1.924339652E0,2.960969162E1,2.967892696E1
1.885488767E0,5.380968451E-1,1.847725153E0,2.878608513E1,2.885034373E1
1.888009340E0,4.231751561E-1,1.732803464E0,2.798163414E1,2.803842960E1
1.890530017E0,2.890998423E-1,1.593939781E0,2.718675804E1,2.723497816E1
1.893050798E0,1.454477459E-1,1.402403593E0,2.641582680E1,2.645342693E1
1.895571684E0,3.531447425E-2,1.172560334E0,2.571671867E1,2.574346061E1
1.898092621E0,-5.566519126E-2,9.044097066E-1,2.501282310E1,2.502923042E1
1.900613611E0,-1.322796494E-1,6.266822815E-1,2.432329369E1,2.433172506E1
1.903134601E0,-2.041056901E-1,3.681085110E-1,2.360982132E1,2.361357291E1
1.905655590E0,-2.424129248E-1,1.191115379E-1,2.290113831E1,2.290273100E1
1.908176580E0,-2.663549483E-1,-1.203086376E-1,2.214456940E1,2.214649798E1
1.910697101E0,-2.567781210E-1,-3.405751884E-1,2.139278984E1,2.139704147E1
1.913217309E0,-2.041056901E-1,-5.321113467E-1,2.061228180E1,2.062015913E1
1.915737361E0,-1.418564469E-1,-7.188590765E-1,1.980782890E1,1.982137653E1
1.918257413E0,-5.566519126E-2,-8.864531517E-1,1.901295471E1,1.903368973E1
1.920777465E0,7.362170517E-2,-1.049258947E0,1.822765541E1,1.825797870E1
1.923297517E0,2.076970041E-1,-1.231218219E0,1.750939560E1,1.755385914E1
1.925817569E0,3.417722881E-1,-1.427542806E0,1.682465363E1,1.688856585E1
1.928337621E0,4.806360006E-1,-1.633444071E0,1.619258499E1,1.628185982E1
1.930857673E0,6.147112846E-1,-1.853710651E0,1.559403419E1,1.571585237E1
1.933377726E0,7.583633661E-1,-2.083554029E0,1.496675301E1,1.513010271E1
1.935897778E0,8.732850552E-1,-2.284667015E0,1.432510757E1,1.453241333E1
1.938417830E0,9.498994946E-1,-2.490568399E0,1.368824959E1,1.394537259E1
1.940937882E0,1.021725535E0,-2.677315950E0,1.312800694E1,1.343713176E1
1.943457934E0,1.045667648E0,-2.883217335E0,1.260607052E1,1.297379578E1
1.945978038E0,1.064821243E0,-3.108272314E0,1.206976891E1,1.250897768E1
1.948498194E0,1.112705231E0,-3.333327293E0,1.158135223E1,1.210276429E1
1.951018403E0,1.155800819E0,-3.544017076E0,1.106420422E1,1.167529646E1
1.953538663E0,1.198896527E0,-3.745130062E0,1.059494114E1,1.130115613E1
1.956058976E0,1.241992116E0,-3.922300816E0,1.011610031E1,1.092073595E1
1.958579340E0,1.294664621E0,-4.051588058E0,9.665990829E0,1.056044038E1
1.961099757E0,1.342548609E0,-4.147356033E0,9.220669746E0,1.019920337E1
1.963620226E0,1.409586191E0,-4.233547211E0,8.789712906E0,9.857429086E0
1.966140746E0,1.467047095E0,-4.291007996E0,8.377910614E0,9.526508440E0
1.968661319E0,1.529296279E0,-4.377199173E0,8.033144951E0,9.275237868E0
1.971181944E0,1.610699177E0,-4.501697540E0,7.731475830E0,9.090398841E0
1.973702569E0,1.739986062E0,-4.621407986E0,7.396287441E0,8.893257625E0
1.976223194E0,1.874061346E0,-4.693233967E0,7.022792339E0,8.652061213E0
1.978743819E0,1.955464244E0,-4.717175961E0,6.587047577E0,8.334553691E0
1.981263976E0,2.027290344E0,-4.678868771E0,6.136937618E0,7.978954972E0
1.983784080E0,2.056020737E0,-4.607042789E0,5.662885666E0,7.584216413E0
1.986304184E0,2.070385933E0,-4.487332344E0,5.198410511E0,7.172595159E0
1.988824288E0,2.060809135E0,-4.329315186E0,4.733935356E0,6.737955790E0
1.991344392E0,2.036867142E0,-4.171298027E0,4.298190594E0,6.326373160E0
1.993864496E0,1.998559833E0,-4.018068790E0,3.857657433E0,5.917823846E0
1.996384601E0,1.960252643E0,-3.860051632E0,3.493738890E0,5.563164608E0
1.998904757E0,1.912368655E0,-3.716399670E0,3.177704096E0,5.250388909E0
2.001424965E0,1.854907751E0,-3.577535868E0,2.885611534E0,4.956430124E0
2.003945226E0,1.749562860E0,-3.433883905E0,2.641402960E0,4.672209164E0
2.006465538E0,1.615487576E0,-3.304596901E0,2.421136379E0,4.403641919E0
2.008985903E0,1.452681899E0,-3.132214308E0,2.186504602E0,4.086790128E0
2.011506319E0,1.232415318E0,-2.974197149E0,1.994968534E0,3.787425993E0
2.014026788E0,9.834183455E-1,-2.820968151E0,1.784278870E0,3.479744823E0
2.016547309E0,6.865373254E-1,-2.648585558E0,1.568800688E0,3.153961724E0
2.019067830E0,3.848679364E-1,-2.495356798E0,1.377264500E0,2.876071345E0
2.021588351E0,6.404489279E-2,-2.337339401E0,1.128267527E0,2.596198150E0
2.024108871E0,-2.998737693E-1,-2.184110403E0,8.505401611E-1,2.362981400E0
2.026629392E0,-6.159083843E-1,-2.035670042E0,5.632359385E-1,2.200120538E0
2.029149913E0,-8.840589523E-1,-1.872864246E0,2.424129248E-1,2.085172593E0
2.031670434E0,-1.118690729E0,-1.719635367E0,-9.277531505E-2,2.053587593E0
2.034190434E0,-1.300650120E0,-1.561618090E0,-4.710591733E-1,2.086201941E0
2.036710434E0,-1.453878999E0,-1.413177609E0,-8.349778652E-1,2.192720487E0
2.039230434E0,-1.583165884E0,-1.274313807E0,-1.222838521E0,2.371839781E0
2.041750434E0,-1.654991984E0,-1.140238523E0,-1.601122379E0,2.569578804E0
2.044270434E0,-1.717241168E0,-1.001374841E0,-1.988983035E0,2.812067267E0
2.046790434E0,-1.736394763E0,-8.625111580E-1,-2.391208887E0,3.078452893E0
2.049310434E0,-1.722029567E0,-7.092822790E-1,-2.803011656E0,3.365314476E0
2.051830434E0,-1.669357181E0,-5.847837925E-1,-3.195660830E0,3.652529756E0
2.054350434E0,-1.635838270E0,-4.842272997E-1,-3.569156170E0,3.955921977E0
2.056870486E0,-1.578377485E0,-4.076128304E-1,-3.937863350E0,4.261946911E0
2.059390590E0,-1.520916581E0,-3.453635871E-1,-4.296993732E0,4.571281920E0
2.061910746E0,-1.434725404E0,-3.118447661E-1,-4.660912037E0,4.886694707E0
2.064430955E0,-1.338957310E0,-3.022679687E-1,-5.010465622E0,5.195087906E0
2.066951215E0,-1.262342811E0,-3.118447661E-1,-5.312135220E0,5.468961247E0
2.069471528E0,-1.200093627E0,-3.453635871E-1,-5.580285549E0,5.718311598E0
2.071991892E0,-1.156997919E0,-4.028244317E-1,-5.810129166E0,5.937887893E0
2.074512257E0,-1.118690729E0,-4.650736749E-1,-5.982511520E0,6.103950079E0
2.077032621E0,-1.089960337E0,-5.416881442E-1,-6.164470673E0,6.283481380E0
2.079552986E0,-1.075595140E0,-5.799953341E-1,-6.370372295E0,6.486520074E0
2.082073038E0,-1.104325533E0,-6.422445774E-1,-6.542754650E0,6.666307178E0
2.084592830E0,-1.085171938E0,-6.613982320E-1,-6.724713802E0,6.843743236E0
2.087112621E0,-1.113902330E0,-6.566098332E-1,-6.911461830E0,7.031373941E0
2.089632361E0,-1.152209520E0,-6.566098332E-1,-7.045536995E0,7.169261803E0
2.092152101E0,-1.195305228E0,-6.230909824E-1,-7.184400558E0,7.309761169E0
2.094671840E0,-1.238400817E0,-5.991489887E-1,-7.280169010E0,7.409013221E0
2.097191580E0,-1.286284804E0,-5.704185367E-1,-7.361571789E0,7.494841233E0
2.099711319E0,-1.348534107E0,-5.273229480E-1,-7.428609371E0,7.568411387E0
2.102231111E0,-1.396418095E0,-4.746504724E-1,-7.495646954E0,7.639371690E0
2.104750955E0,-1.477820992E0,-4.363432527E-1,-7.543530941E0,7.699299278E0
2.107270903E0,-1.568800688E0,-3.932476342E-1,-7.543530941E0,7.714961980E0
2.109790955E0,-1.631049871E0,-3.597288132E-1,-7.543530941E0,7.726227253E0
2.112311111E0,-1.702875972E0,-3.214215636E-1,-7.538742542E0,7.735356328E0
2.114831371E0,-1.750759959E0,-2.495955229E-1,-7.543530941E0,7.748052492E0
2.117351684E0,-1.769913554E0,-1.873462796E-1,-7.581838131E0,7.787936958E0
2.119872048E0,-1.755548358E0,-1.442506462E-1,-7.634510517E0,7.835081947E0
2.122392465E0,-1.707664371E0,-9.157821536E-2,-7.706336498E0,7.893803038E0
2.124912882E0,-1.640626669E0,-3.890577704E-2,-7.811681747E0,7.982201529E0
2.127433038E0,-1.559223890E0,2.334346622E-2,-7.864354134E0,8.017467805E0
2.129952934E0,-1.516128182E0,5.207388848E-2,-7.955333710E0,8.098684510E0
2.132472830E0,-1.458667397E0,6.165069342E-2,-8.065466881E0,8.196539965E0
2.134992726E0,-1.362899303E0,8.080431074E-2,-8.146869659E0,8.260478745E0
2.137512621E0,-1.238400817E0,1.047463268E-1,-8.228272438E0,8.321602952E0
2.140032569E0,-1.104325533E0,1.143231317E-1,-8.290521622E0,8.364529480E0
2.142552569E0,-9.415197968E-1,1.191115379E-1,-8.285733223E0,8.339905403E0
2.145072621E0,-7.691373229E-1,9.038111567E-2,-8.309675217E0,8.345684105E0
2.147592726E0,-5.871779919E-1,4.728548229E-2,-8.314463615E0,8.335305581E0
2.150112882E0,-4.100070298E-1,-4.369417951E-2,-8.290521622E0,8.300768862E0
2.152633090E0,-1.897404790E-1,-1.442506462E-1,-8.233060837E0,8.236510210E0
2.155153351E0,1.795651275E-3,-2.735375464E-1,-8.151658058E0,8.156246386E0
2.157673663E0,1.885433793E-1,-4.076128304E-1,-8.046313286E0,8.058837033E0
2.160193976E0,3.321954906E-1,-5.321113467E-1,-7.921814919E0,7.946612356E0
2.162714288E0,4.566939771E-1,-6.470330358E-1,-7.830835342E0,7.870781619E0
2.165234601E0,5.524620414E-1,-7.571662664E-1,-7.735067368E0,7.791648237E0
2.167754548E0,5.955576897E-1,-8.625111580E-1,-7.672817707E0,7.744078126E0
2.170274496E0,6.003460884E-1,-9.439139962E-1,-7.591414928E0,7.673393622E0
2.172794444E0,5.811924338E-1,-1.015740037E0,-7.462128162E0,7.553334971E0
2.175314392E0,5.428852439E-1,-1.097142935E0,-7.265803814E0,7.368198699E0
2.177834392E0,5.093663931E-1,-1.192911029E0,-7.079055786E0,7.196910564E0
2.180354444E0,4.710591733E-1,-1.274313807E0,-6.877943039E0,7.010839670E0
2.182874496E0,4.423287511E-1,-1.365293503E0,-6.633734226E0,6.787201990E0
2.185394548E0,3.992331326E-1,-1.499368787E0,-6.389525890E0,6.575221286E0
2.187914601E0,3.465606868E-1,-1.614290476E0,-6.164470673E0,6.381750287E0
2.190434653E0,3.369838893E-1,-1.734000564E0,-5.968146324E0,6.224073155E0
2.192954444E0,3.369838893E-1,-1.887229443E0,-5.771821976E0,6.081868301E0
2.195474236E0,3.178302646E-1,-2.030881643E0,-5.585073948E0,5.951348362E0
2.197994028E0,2.986766696E-1,-2.150591612E0,-5.403114796E0,5.823049161E0
2.200513819E0,2.747346461E-1,-2.222417831E0,-5.259462357E0,5.716341874E0
2.203033663E0,2.412158251E-1,-2.255936623E0,-5.192424774E0,5.666454814E0
2.205553559E0,1.693897694E-1,-2.270301819E0,-5.134963989E0,5.617011520E0
2.208073507E0,1.262941360E-1,-2.212841034E0,-5.087080002E0,5.548963741E0
2.210593559E0,5.925649032E-2,-2.131438017E0,-5.082291603E0,5.511463262E0
2.213113663E0,1.616086066E-2,-2.054823637E0,-5.106233597E0,5.504196844E0
2.215633819E0,-2.214636654E-2,-1.963843942E0,-5.111021996E0,5.475373898E0
2.218154028E0,-6.524199992E-2,-1.868075848E0,-5.111021996E0,5.442105266E0
2.220674288E0,-1.083376259E-1,-1.777096152E0,-5.091868401E0,5.394157171E0
2.223194548E0,-1.227028370E-1,-1.705270171E0,-5.048772812E0,5.330394849E0
2.225714809E0,-1.418564469E-1,-1.633444071E0,-4.967370033E0,5.230968154E0
2.228234757E0,-1.562216580E-1,-1.575983286E0,-4.809352875E0,5.063398424E0
2.230754705E0,-1.849520802E-1,-1.575983286E0,-4.560355663E0,4.828537498E0
2.233274653E0,-2.041056901E-1,-1.575983286E0,-4.186860085E0,4.478300997E0
2.235794601E0,-1.897404790E-1,-1.609502077E0,-3.717596769E0,4.055493080E0
2.238314028E0,-1.370680481E-1,-1.643020868E0,-3.214814425E0,3.612940216E0
2.240833455E0,-5.566519126E-2,-1.657386184E0,-2.731185675E0,3.195215605E0
2.243352882E0,5.925649032E-2,-1.580771685E0,-2.319382906E0,2.807469949E0
2.245872309E0,1.454477459E-1,-1.456273198E0,-1.941099048E0,2.430998187E0
2.248391788E0,2.172738016E-1,-1.226429820E0,-1.562815189E0,1.998431716E0
2.250911319E0,2.603694201E-1,-9.343371987E-1,-1.213261724E0,1.553313312E0
2.253430851E0,2.986766696E-1,-6.326677799E-1,-8.349778652E-1,1.089341227E0
2.255950434E0,3.417722881E-1,-3.166331649E-1,-4.471171796E-1,6.457388252E-1
2.258470069E0,3.896563351E-1,8.978256024E-3,1.735796221E-2,3.901460847E-1
2.260989757E0,4.040215313E-1,3.250128925E-1,5.105634928E-1,7.276962678E-1
2.263509548E0,3.752911091E-1,6.362590790E-1,1.056441545E0,1.289084082E0
2.266029444E0,2.603694201E-1,9.427168965E-1,1.674145579E0,1.938883906E0
2.268549392E0,3.052607179E-2,1.230021119E0,2.315791607E0,2.622360494E0
2.271069392E0,-2.759317458E-1,1.498171687E0,2.962226152E0,3.330981914E0
2.273589444E0,-6.159083843E-1,1.742380261E0,3.589506865E0,4.037300044E0
2.276109601E0,-9.750386477E-1,1.938704848E0,4.250306606E0,4.772251366E0
2.278629809E0,-1.324592113E0,2.087145329E0,4.954201698E0,5.536680807E0
2.281150069E0,-1.688510776E0,2.115875721E0,5.715558052E0,6.324207662E0
2.283670382E0,-2.057217836E0,1.991377234E0,6.582259178E0,7.178012566E0
2.286190746E0,-2.397194386E0,1.723226666E0,7.448959827E0,8.012680798E0
2.288711163E0,-2.732382774E0,1.340154409E0,8.243835449E0,8.787647716E0
2.291231632E0,-3.034052134E0,9.091981053E-1,8.871115685E0,9.419596968E0
2.293752153E0,-3.306991100E0,4.638765752E-1,9.282918930E0,9.865290441E0
2.296272673E0,-3.517680883E0,2.334346622E-2,9.455301285E0,1.008847591E1
2.298793194E0,-3.690063477E0,-3.788824081E-1,9.378686905E0,1.008562781E1
2.301313611E0,-3.828927040E0,-7.044938207E-1,9.134477615E0,9.929535494E0
2.303833559E0,-3.948637247E0,-9.774328470E-1,8.784924507E0,9.681012843E0
2.306353507E0,-4.053982258E0,-1.216853023E0,8.387487411E0,9.394969319E0
2.308873455E0,-4.092289448E0,-1.446696401E0,7.994838238E0,9.097098540E0
2.311393403E0,-4.015674591E0,-1.700481772E0,7.674015045E0,8.826538823E0
2.313913351E0,-3.824138641E0,-1.968632340E0,7.444171429E0,8.597397158E0
2.316433298E0,-3.555988073E0,-2.279878616E0,7.271789074E0,8.409626271E0
2.318953246E0,-3.220799923E0,-2.581547976E0,7.214328289E0,8.311707090E0
2.321473194E0,-2.852092743E0,-2.883217335E0,7.267000675E0,8.322059482E0
2.323993142E0,-2.459443808E0,-3.160944700E0,7.482479095E0,8.486926926E0
2.326513142E0,-2.023699045E0,-3.347692490E0,7.865550995E0,8.784605585E0
2.329033194E0,-1.587954283E0,-3.476979494E0,8.330026627E0,9.165169328E0
2.331553298E0,-1.147421122E0,-3.553593874E0,8.885480881E0,9.638276564E0
2.334073455E0,-7.451952696E-1,-3.534440279E0,9.517550468E0,1.017994848E1
2.336593663E0,-4.052186310E-1,-3.510498285E0,1.027890682E1,1.086939399E1
2.339113923E0,-8.439560980E-2,-3.462614298E0,1.123179913E1,1.175372843E1
2.341634236E0,1.933317930E-1,-3.405153275E0,1.234749699E1,1.280988399E1
2.344154601E0,4.471171796E-1,-3.347692490E0,1.357811642E1,1.399186207E1
2.346674965E0,6.386532784E-1,-3.280654907E0,1.497632980E1,1.534473946E1
2.349195382E0,7.583633661E-1,-3.199252129E0,1.652777290E1,1.685163512E1
2.351715851E0,8.397662640E-1,-3.093907118E0,1.810315704E1,1.838482427E1
2.354236319E0,8.589198589E-1,-2.888005733E0,1.962586975E1,1.985580731E1
2.356756788E0,7.823054194E-1,-2.610278368E0,2.110548592E1,2.128067411E1
2.359277257E0,6.194996834E-1,-2.294243813E0,2.248933601E1,2.261454330E1
2.361797726E0,3.944447339E-1,-1.978209138E0,2.386360741E1,2.394870887E1
2.364318038E0,1.933317930E-1,-1.686116576E0,2.513732147E1,2.519454896E1
2.366838090E0,3.052607179E-2,-1.432331204E0,2.623865509E1,2.627773821E1
2.369358142E0,-7.003039867E-2,-1.197699428E0,2.718197060E1,2.720843461E1
2.371878194E0,-1.322796494E-1,-9.774328470E-1,2.800078773E1,2.801815459E1
2.374398246E0,-1.562216580E-1,-7.475894690E-1,2.872862434E1,2.873877436E1
2.376918298E0,-1.753752679E-1,-5.464765429E-1,2.947561646E1,2.948120348E1
2.379438351E0,-2.041056901E-1,-3.836708367E-1,3.024176025E1,3.024488264E1
2.381958403E0,-2.328361124E-1,-2.735375464E-1,3.101748085E1,3.101956082E1
2.384478455E0,-2.519897223E-1,-2.304419130E-1,3.173095322E1,3.173279052E1
2.386998507E0,-2.184709013E-1,-2.208651006E-1,3.233429337E1,3.233578572E1
2.389518611E0,-1.514332592E-1,-2.160767019E-1,3.283228683E1,3.283334707E1
2.392038767E0,-7.481880486E-2,-2.017114908E-1,3.325845337E1,3.325914921E1
2.394559028E0,3.531447425E-2,-1.394622475E-1,3.357448959E1,3.357479781E1
2.397079392E0,1.837549806E-1,-5.327098817E-2,3.381869888E1,3.381924005E1
2.399599861E0,3.034650683E-1,8.559270948E-2,3.402459717E1,3.402605810E1
2.402120434E0,3.944447339E-1,3.010708690E-1,3.420177078E1,3.420537027E1
2.404641059E0,4.375403523E-1,5.165489912E-1,3.434063339E1,3.434730508E1
2.407161736E0,4.088099301E-1,7.463923693E-1,3.446513367E1,3.447563873E1
2.409682465E0,3.657143116E-1,9.953893423E-1,3.462793732E1,3.464417108E1
2.412203194E0,2.603694201E-1,1.244386315E0,3.478595352E1,3.480917770E1
2.414723923E0,1.071405262E-1,1.455076098E0,3.495354843E1,3.498398596E1
2.417244548E0,-9.397241473E-2,1.665765882E0,3.515945053E1,3.519901374E1
2.419764705E0,-3.621230125E-1,1.909974456E0,3.534141159E1,3.539483732E1
2.422284861E0,-6.733692288E-1,2.154182911E0,3.542281342E1,3.549464242E1
2.424804861E0,-9.798270464E-1,2.441487074E0,3.536535263E1,3.546306652E1
2.427324809E0,-1.300650120E0,2.724003077E0,3.515945053E1,3.528879206E1
2.429844757E0,-1.578377485E0,2.987365246E0,3.490087509E1,3.506403726E1
2.432364705E0,-1.789067268E0,3.212420225E0,3.456568909E1,3.476071443E1
2.434884705E0,-1.913565755E0,3.375225782E0,3.413951874E1,3.435928728E1
2.437404809E0,-1.971026540E0,3.451840401E0,3.362237167E1,3.385652116E1
2.439925017E0,-1.932719350E0,3.475782394E0,3.304776382E1,3.328620076E1
2.442445330E0,-1.793855667E0,3.461417198E0,3.242048264E1,3.265405061E1
2.444965746E0,-1.602319479E0,3.432686806E0,3.175489616E1,3.198005936E1
2.447486267E0,-1.343745708E0,3.380014181E0,3.107973099E1,3.129184920E1
2.450006892E0,-1.037287831E0,3.332130194E0,3.039977837E1,3.059943762E1
2.452527569E0,-7.212532759E-1,3.279457808E0,2.972461319E1,2.991367044E1
2.455048298E0,-3.812766075E-1,3.212420225E0,2.910211945E1,2.928136561E1
2.457569028E0,-3.651157767E-2,3.154959202E0,2.848441696E1,2.865863064E1
2.460089757E0,2.555810213E-1,3.059191227E0,2.789544296E1,2.806385060E1
2.462610486E0,5.237316489E-1,2.901173830E0,2.734956551E1,2.750799589E1
2.465131007E0,7.823054194E-1,2.709637880E0,2.682762909E1,2.697546704E1
2.467651163E0,1.012148738E0,2.446275473E0,2.638709641E1,2.651956948E1
2.470171319E0,1.213261724E0,2.125452518E0,2.601838875E1,2.613323756E1
2.472691476E0,1.385644197E0,1.780687571E0,2.564968109E1,2.574872809E1
2.475211632E0,1.538873196E0,1.474229693E0,2.526181984E1,2.535154878E1
2.477731788E0,1.672948480E0,1.210867524E0,2.484523010E1,2.493091285E1
2.480251944E0,1.759139657E0,1.000177741E0,2.433765793E1,2.442164043E1
2.482772101E0,1.778293371E0,8.996213078E-1,2.384445381E1,2.392759126E1
2.485292257E0,1.730409265E0,8.517372608E-1,2.337997818E1,2.345939369E1
2.487812413E0,1.629852772E0,8.613140583E-1,2.291550255E1,2.298953107E1
2.490332569E0,1.447893500E0,8.661024570E-1,2.247018242E1,2.253343354E1
2.492852726E0,1.270722508E0,8.852560520E-1,2.201049423E1,2.206491039E1
2.495372882E0,1.060032845E0,9.235633016E-1,2.156038475E1,2.160617572E1
2.497893038E0,8.349778652E-1,9.714473486E-1,2.110548592E1,2.114432391E1
2.500413194E0,6.099228859E-1,1.024119735E0,2.066495323E1,2.069930239E1
2.502933351E0,3.705027103E-1,1.067215443E0,2.021963120E1,2.025116556E1
2.505453507E0,1.215057373E-1,1.148618221E0,1.978867531E1,1.982235500E1
2.507973663E0,-1.274912357E-1,1.215655923E0,1.941996765E1,1.945839708E1
2.510493819E0,-3.764882088E-1,1.301847219E0,1.909435654E1,1.914238755E1
2.513013976E0,-6.015431881E-1,1.378461599E0,1.879747581E1,1.885754776E1
2.515534184E0,-8.553285599E-1,1.469441295E0,1.851496124E1,1.859286515E1
2.518054444E0,-1.156997919E0,1.579574585E0,1.825638580E1,1.836108174E1
2.520574757E0,-1.477820992E0,1.670554280E0,1.804090881E1,1.817825892E1
2.523095121E0,-1.793855667E0,1.780687571E0,1.783500671E1,1.801322378E1
2.525615538E0,-2.038064241E0,1.852513552E0,1.761952972E1,1.783348928E1
2.528135955E0,-2.234388828E0,1.905186057E0,1.741841507E1,1.766418441E1
2.530656371E0,-2.373252392E0,1.957858443E0,1.725082207E1,1.752302481E1
2.533176788E0,-2.445078373E0,1.981800437E0,1.713111115E1,1.741783311E1
2.535697205E0,-2.469020605E0,2.000954151E0,1.699703598E1,1.729159080E1
2.538217621E0,-2.492962599E0,2.005742550E0,1.685817337E1,1.715913387E1
2.540738038E0,-2.483385801E0,2.000954151E0,1.671930885E1,1.702076118E1
2.543258455E0,-2.425924778E0,2.020107746E0,1.655650330E1,1.685478412E1
2.545778871E0,-2.363675594E0,2.053626537E0,1.639369774E1,1.669004703E1
2.548299288E0,-2.267907619E0,2.063203335E0,1.623089218E1,1.651793189E1
2.550819705E0,-2.138620615E0,2.044049740E0,1.605372047E1,1.632402458E1
2.553340121E0,-2.018910646E0,2.034472942E0,1.587176132E1,1.612848064E1
2.555860590E0,-1.889623642E0,2.020107746E0,1.567543697E1,1.591762662E1
2.558381059E0,-1.745971560E0,1.996165633E0,1.547432423E1,1.569993007E1
2.560901528E0,-1.602319479E0,1.991377234E0,1.525884628E1,1.547143823E1
2.563421996E0,-1.477820992E0,1.986588836E0,1.506730938E1,1.526939102E1
2.565942465E0,-1.367687702E0,2.010530949E0,1.486140823E1,1.505902583E1
2.568462934E0,-1.252766013E0,2.024896145E0,1.467466068E1,1.486658311E1
2.570983403E0,-1.166574836E0,2.024896145E0,1.452143192E1,1.470826592E1
2.573503871E0,-1.104325533E0,2.015319347E0,1.440651035E1,1.458864584E1
2.576024340E0,-1.037287831E0,2.020107746E0,1.430595398E1,1.448506543E1
2.578544757E0,-9.415197968E-1,1.996165633E0,1.415272522E1,1.432378330E1
2.581064965E0,-8.553285599E-1,1.957858443E0,1.402343750E1,1.418525981E1
2.583585173E0,-7.404068708E-1,1.909974456E0,1.390372753E1,1.405381955E1
2.586105330E0,-6.398503780E-1,1.842936754E0,1.378880596E1,1.392612632E1
2.588625486E0,-5.105634928E-1,1.761533856E0,1.364036560E1,1.376311194E1
2.591145694E0,-4.052186310E-1,1.656189084E0,1.346798325E1,1.357548294E1
2.593665955E0,-2.950853705E-1,1.569997787E0,1.325729370E1,1.335319455E1
2.596186267E0,-1.610100716E-1,1.507748485E0,1.300829601E1,1.309637335E1
2.598706632E0,-6.524199992E-2,1.459864497E0,1.275929928E1,1.284270917E1
2.601227048E0,4.010287672E-2,1.411980510E0,1.251509094E1,1.259455432E1
2.603747517E0,1.406593472E-1,1.364096403E0,1.229961300E1,1.237582417E1
2.606268038E0,2.220622003E-1,1.297058821E0,1.204582691E1,1.211749228E1
2.608788559E0,2.843114436E-1,1.234809518E0,1.179204178E1,1.185992567E1
2.611309080E0,3.561375141E-1,1.191713929E0,1.155262184E1,1.161938412E1
2.613829601E0,4.135983288E-1,1.148618221E0,1.127968311E1,1.134555589E1
2.616349861E0,4.375403523E-1,1.134253025E0,1.096843624E1,1.103560443E1
2.618870017E0,4.758476019E-1,1.110311031E0,1.064761353E1,1.071591785E1
2.621390173E0,4.854243994E-1,1.110311031E0,1.029806042E1,1.036911162E1
2.623910330E0,4.950011969E-1,1.110311031E0,9.962871552E0,1.003676374E1
2.626430486E0,4.854243994E-1,1.110311031E0,9.642048836E0,9.717897570E0
2.628950642E0,4.279635549E-1,1.115099430E0,9.311649323E0,9.387939745E0
2.631470798E0,3.609259129E-1,1.134253025E0,8.995614052E0,9.074021689E0
2.633990955E0,2.651578486E-1,1.139041424E0,8.708310127E0,8.786489021E0
2.636511111E0,1.406593472E-1,1.153406620E0,8.421006203E0,8.500792748E0
2.639031267E0,3.052607179E-2,1.167771935E0,8.191162109E0,8.274041324E0
2.641551423E0,-1.179144308E-1,1.134253025E0,7.999626637E0,8.080498751E0
2.644071580E0,-2.855085433E-1,1.076792240E0,7.860762596E0,7.939306346E0
2.646591736E0,-4.435258508E-1,9.858125448E-1,7.741052628E0,7.816165130E0
2.649111892E0,-5.776011348E-1,8.852560520E-1,7.587823868E0,7.661094726E0
2.651632048E0,-6.829460263E-1,7.751228213E-1,7.362768650E0,7.434890238E0
2.654152205E0,-7.451952696E-1,6.554127336E-1,7.080253124E0,7.149466144E0
2.656672361E0,-7.882909179E-1,5.452794433E-1,6.773795128E0,6.841274200E0
2.659192517E0,-7.787141204E-1,4.495113790E-1,6.438606739E0,6.501085517E0
2.661712673E0,-7.643488646E-1,3.585317135E-1,6.079476833E0,6.137818240E0
2.664232830E0,-7.212532759E-1,2.962824702E-1,5.710769653E0,5.763755687E0
2.666752986E0,-7.308300734E-1,2.340332121E-1,5.361216068E0,5.415858369E0
2.669273142E0,-7.260416746E-1,2.100912035E-1,5.016450882E0,5.073071484E0
2.671793351E0,-7.451952696E-1,2.244564146E-1,4.681262970E0,4.745515743E0
2.674313611E0,-7.499836683E-1,2.483984232E-1,4.341286182E0,4.412589149E0
2.676833923E0,-7.308300734E-1,2.914940715E-1,3.948637247E0,4.026265950E0
2.679354288E0,-6.733692288E-1,4.112041295E-1,3.536834478E0,3.623770561E0
2.681874705E0,-6.206967831E-1,5.261258483E-1,3.125031710E0,3.229225308E0
2.684395173E0,-5.536591411E-1,6.218938828E-1,2.708440781E0,2.833538761E0
2.686915642E0,-5.057750940E-1,6.554127336E-1,2.368463993E0,2.508983058E0
2.689436111E0,-4.674678743E-1,6.314706802E-1,2.090736628E0,2.233486306E0
2.691956580E0,-4.722562730E-1,5.644330382E-1,1.836951256E0,1.978888718E0
2.694477048E0,-4.866214991E-1,4.542997777E-1,1.597531080E0,1.730691863E0
2.696997517E0,-4.770447016E-1,3.154360652E-1,1.334168911E0,1.451577846E0
2.699517986E0,-4.961982965E-1,1.765723825E-1,1.003769040E0,1.133553193E0
2.702038455E0,-5.009866953E-1,7.122749835E-2,5.919663906E-1,7.787716180E-1
2.704558923E0,-5.105634928E-1,-1.017535757E-2,7.481880486E-2,5.161167229E-1
2.707079392E0,-5.249287486E-1,-3.890577704E-2,-4.997895956E-1,7.258467403E-1
2.709599861E0,-5.632359385E-1,-5.327098817E-2,-1.083974838E0,1.222732175E0
2.712120330E0,-6.254851818E-1,-5.327098817E-2,-1.610699177E0,1.728705108E0
2.714640798E0,-6.637924314E-1,-5.805939063E-2,-2.079962730E0,2.184087051E0
2.717161267E0,-7.356184721E-1,-7.242459804E-2,-2.510919094E0,2.617459561E0
2.719681736E0,-7.739257216E-1,-1.011550203E-1,-2.922721624E0,3.025143807E0
2.722202257E0,-7.978677154E-1,-1.203086376E-1,-3.281852007E0,3.379588681E0
2.724722830E0,-8.553285599E-1,-1.442506462E-1,-3.602674961E0,3.705625733E0
2.727243455E0,-9.080010056E-1,-1.634042710E-1,-3.866037130E0,3.974595561E0
2.729764132E0,-9.750386477E-1,-1.777694821E-1,-4.076726913E0,4.195474309E0
2.732284861E0,-1.070806742E0,-1.921346933E-1,-4.249109268E0,4.386168304E0
2.734805642E0,-1.142632723E0,-2.112883031E-1,-4.383184910E0,4.534596150E0
2.737326423E0,-1.224035621E0,-1.873462796E-1,-4.498106480E0,4.665439286E0
2.739847257E0,-1.348534107E0,-1.586158574E-1,-4.632181644E0,4.827091258E0
2.742368142E0,-1.463455796E0,-1.059434265E-1,-4.818929672E0,5.037361419E0
2.744889028E0,-1.578377485E0,-5.805939063E-2,-4.991312027E0,5.235249959E0
2.747409913E0,-1.693299174E0,1.855506375E-2,-5.130175591E0,5.402435374E0
2.749930798E0,-1.803432465E0,1.143231317E-1,-5.264250755E0,5.565768091E0
2.752451684E0,-1.875258446E0,2.244564146E-1,-5.312135220E0,5.637885731E0
2.754972569E0,-1.913565755E0,3.154360652E-1,-5.297770023E0,5.641595610E0
2.757493351E0,-1.932719350E0,3.920505345E-1,-5.202001572E0,5.563265953E0
2.760014132E0,-1.899200439E0,4.399345517E-1,-5.058349609E0,5.421015172E0
2.762534913E0,-1.841739655E0,4.447229803E-1,-4.895544052E0,5.249393779E0
2.765055694E0,-1.817797661E0,4.399345517E-1,-4.727949619E0,5.084430976E0
2.767576476E0,-1.760336757E0,4.542997777E-1,-4.560355663E0,4.909380568E0
2.770097048E0,-1.736394763E0,4.638765752E-1,-4.426280499E0,4.777259392E0
2.772617205E0,-1.741183162E0,4.782418013E-1,-4.292205334E0,4.656550295E0
2.775137361E0,-1.712452769E0,4.973953962E-1,-4.196436882E0,4.559602962E0
2.777657517E0,-1.678933978E0,5.165489912E-1,-4.091092110E0,4.452266480E0
2.780177726E0,-1.654991984E0,5.500678420E-1,-3.980958939E0,4.346217570E0
2.782697986E0,-1.602319479E0,5.692214370E-1,-3.856460333E0,4.214703674E0
2.785218298E0,-1.535281897E0,5.883750916E-1,-3.703231573E0,4.051814388E0
2.787738663E0,-1.434725404E0,5.979518890E-1,-3.578732967E0,3.901706434E0
2.790259080E0,-1.324592113E0,6.075286865E-1,-3.463811398E0,3.757875034E0
2.792779548E0,-1.233612418E0,6.123170853E-1,-3.358466387E0,3.629879927E0
2.795300069E0,-1.166574836E0,5.835866928E-1,-3.243544817E0,3.496005328E0
2.797820642E0,-1.089960337E0,5.452794433E-1,-3.119046211E0,3.348700117E0
2.800341267E0,-1.008557439E0,4.734533727E-1,-3.004124641E0,3.204077256E0
2.802861944E0,-9.175778031E-1,3.681085110E-1,-2.903568029E0,3.067272437E0
2.805382621E0,-8.218097091E-1,2.531868219E-1,-2.831742048E0,2.959432005E0
2.807903298E0,-6.925228238E-1,1.430535465E-1,-2.812588453E0,2.900121719E0
2.810423976E0,-6.111199856E-1,7.601590455E-2,-2.793434858E0,2.860511206E0
2.812944653E0,-5.153518915E-1,1.376665942E-2,-2.779069662E0,2.826482846E0
2.815465330E0,-4.531026781E-1,-3.411737457E-2,-2.750339270E0,2.787621231E0
2.817986007E0,-3.908534348E-1,-1.059434265E-1,-2.726397276E0,2.756307770E0
2.820506684E0,-3.238157928E-1,-1.729810685E-1,-2.668936253E0,2.694067527E0
2.823027361E0,-2.711433470E-1,-2.400187254E-1,-2.621052265E0,2.645948352E0
2.825548038E0,-2.136825025E-1,-3.214215636E-1,-2.549226284E0,2.578279791E0
2.828068507E0,-1.705868691E-1,-4.171896577E-1,-2.501342297E0,2.541625538E0
2.830588871E0,-1.370680481E-1,-5.033808947E-1,-2.439092875E0,2.494264225E0
2.833109028E0,-1.322796494E-1,-5.847837925E-1,-2.386420488E0,2.460583820E0
2.835629184E0,-1.322796494E-1,-6.326677799E-1,-2.352901697E0,2.440064102E0
2.838149340E0,-1.322796494E-1,-7.044938207E-1,-2.362478495E0,2.468828485E0
2.840669496E0,-1.179144308E-1,-7.380126715E-1,-2.391208887E0,2.505283708E0
2.843189653E0,-7.481880486E-2,-7.667431235E-1,-2.453458309E0,2.571565777E0
2.845709861E0,-3.651157767E-2,-7.906851172E-1,-2.530072689E0,2.650996768E0
2.848230121E0,-2.214636654E-2,-8.050503135E-1,-2.568379879E0,2.691685656E0
2.850750434E0,-2.992752008E-3,-7.954735160E-1,-2.625840664E0,2.743688441E0
2.853270798E0,6.584054790E-3,-8.002619147E-1,-2.611475468E0,2.731348861E0
2.855791215E0,1.795651275E-3,-8.194155097E-1,-2.573168278E0,2.700488842E0
2.858311684E0,2.094926499E-2,-8.385691643E-1,-2.482188702E0,2.620095011E0
2.860832205E0,4.010287672E-2,-8.385691643E-1,-2.391208887E0,2.534301960E0
2.863352778E0,7.841010392E-2,-8.577227592E-1,-2.309806108E0,2.465165458E0
2.865873403E0,1.454477459E-1,-8.720879555E-1,-2.281075716E0,2.446425734E0
2.868394080E0,2.316390127E-1,-9.008184075E-1,-2.247556925E0,2.432414966E0
2.870914757E0,3.130418658E-1,-9.295488000E-1,-2.185307503E0,2.395334019E0
2.873435434E0,4.135983288E-1,-1.001374841E0,-2.094327927E0,2.357970444E0
2.875956059E0,5.620388389E-1,-1.101931334E0,-1.960252643E0,2.317915172E0
2.878476267E0,7.056909800E-1,-1.216853023E0,-1.783081770E0,2.271147647E0
2.880996476E0,8.397662640E-1,-1.379658699E0,-1.577180386E0,2.257468377E0
2.883516684E0,9.163807034E-1,-1.547252893E0,-1.371279001E0,2.261448918E0
2.886036892E0,9.451110959E-1,-1.738788962E0,-1.184531331E0,2.306455400E0
2.888557101E0,9.259575009E-1,-1.925536752E0,-1.016937137E0,2.366273487E0
2.891077309E0,8.589198589E-1,-2.083554029E0,-8.732850552E-1,2.416933492E0
2.893597517E0,7.583633661E-1,-2.188898802E0,-7.344213724E-1,2.430178535E0
2.896117726E0,6.482301354E-1,-2.279878616E0,-6.147112846E-1,2.448656525E0
2.898637934E0,5.524620414E-1,-2.327762604E0,-4.997895956E-1,2.444070925E0
2.901158142E0,4.758476019E-1,-2.351704597E0,-3.944447339E-1,2.431569884E0
2.903678351E0,4.183867574E-1,-2.342127800E0,-2.795230448E-1,2.395567416E0
2.906198559E0,3.944447339E-1,-2.327762604E0,-1.071405262E-1,2.363375654E0
2.908718819E0,3.369838893E-1,-2.318185806E0,1.131260321E-1,2.345280596E0
2.911239132E0,3.082534671E-1,-2.265513420E0,3.860650361E-1,2.318753430E0
2.913759444E0,2.172738016E-1,-2.217629433E0,6.637924314E-1,2.325017978E0
2.916279809E0,1.454477459E-1,-2.155380011E0,9.558850527E-1,2.362315447E0
2.918800226E0,8.319851011E-2,-2.088342428E0,1.257554412E0,2.439167725E0
2.921320694E0,2.094926499E-2,-2.050035238E0,1.535281897E0,2.561283634E0
2.923841215E0,-4.129998013E-2,-2.011728048E0,1.841739655E0,2.727775721E0
2.926361788E0,-8.439560980E-2,-1.968632340E0,2.124255419E0,2.897429377E0
2.928882413E0,-1.227028370E-1,-1.973420739E0,2.425924778E0,3.129625605E0
2.931403090E0,-1.370680481E-1,-1.997362733E0,2.761113167E0,3.410570547E0
2.933923819E0,-1.274912357E-1,-2.021304846E0,3.096301317E0,3.699866098E0
2.936444601E0,-1.274912357E-1,-2.069188833E0,3.479373693E0,4.050165150E0
2.938965434E0,-1.083376259E-1,-2.131438017E0,3.848080635E0,4.400282904E0
2.941486319E0,-1.035492271E-1,-2.188898802E0,4.259883404E0,4.790470438E0
2.944007205E0,-1.035492271E-1,-2.227206230E0,4.690839767E0,5.193760464E0
2.946528090E0,-1.418564469E-1,-2.241571426E0,5.097854137E0,5.570716517E0
2.949048976E0,-2.136825025E-1,-2.270301819E0,5.447407246E0,5.905436162E0
2.951569861E0,-3.142389655E-1,-2.284667015E0,5.753865242E0,6.198823656E0
2.954090694E0,-4.818331003E-1,-2.289455414E0,6.045958042E0,6.482852603E0
2.956611371E0,-7.068880796E-1,-2.289455414E0,6.352415562E0,6.789291592E0
2.959132048E0,-1.018134236E0,-2.275090218E0,6.572682381E0,7.029422914E0
2.961652569E0,-1.372476101E0,-2.251148224E0,6.730699539E0,7.228670366E0
2.964173090E0,-1.760336757E0,-2.208052635E0,6.840832710E0,7.400761725E0
2.966693611E0,-2.181716204E0,-2.169745207E0,6.970119476E0,7.619071162E0
2.969214132E0,-2.574365377E0,-2.188898802E0,7.142502308E0,7.901517214E0
2.971734653E0,-2.947860956E0,-2.241571426E0,7.372345448E0,8.250212365E0
2.974255173E0,-3.244741917E0,-2.313397408E0,7.606977463E0,8.587564485E0
2.976775694E0,-3.527257681E0,-2.370858192E0,7.913434982E0,8.982481201E0
2.979296215E0,-3.795408249E0,-2.418742180E0,8.286931038E0,9.430199549E0
2.981816736E0,-4.092289448E0,-2.423530579E0,8.756194115E0,9.964500427E0
2.984337257E0,-4.417900562E0,-2.390011787E0,9.297284126E0,1.056737876E1
2.986857778E0,-4.824914932E0,-2.313397408E0,9.924564362E0,1.127513146E1
2.989378298E0,-5.203198910E0,-2.188898802E0,1.057578754E1,1.198798728E1
2.991898819E0,-5.547964096E0,-1.997362733E0,1.124137592E1,1.269401025E1
2.994419340E0,-5.935824394E0,-1.762730956E0,1.192132854E1,1.343351428E1
2.996939861E0,-6.271012783E0,-1.547252893E0,1.268268490E1,1.423271194E1
2.999460382E0,-6.649296761E0,-1.336563110E0,1.351586723E1,1.512211015E1
3.001980903E0,-7.051522732E0,-1.111508131E0,1.443045235E1,1.609960801E1
3.004501423E0,-7.477690697E0,-9.199720025E-1,1.542165184E1,1.716361128E1
3.007021944E0,-7.879916191E0,-7.188590765E-1,1.631229401E1,1.813010682E1
3.009542465E0,-8.243835449E0,-4.890156984E-1,1.710238075E1,1.899187686E1
3.012062986E0,-8.555081367E0,-2.112883031E-1,1.777275848E1,1.972574470E1
3.014583507E0,-8.823231697E0,1.286883354E-1,1.836651993E1,2.037633511E1
3.017104028E0,-9.005190849E0,5.165489912E-1,1.894112778E1,2.097919461E1
3.019624548E0,-9.100958824E0,9.091981053E-1,1.953489113E1,2.157002698E1
3.022145069E0,-9.148842812E0,1.292270422E0,2.020526695E1,2.221765290E1
3.024665590E0,-9.115324020E0,1.593939781E0,2.093310356E1,2.288721479E1
3.027186111E0,-9.000402451E0,1.818994761E0,2.161784554E1,2.348717164E1
3.029706632E0,-8.775347710E0,1.967435241E0,2.233610535E1,2.407860318E1
3.032227153E0,-8.526350975E0,2.015319347E0,2.303042412E1,2.464062921E1
3.034747673E0,-8.195950508E0,1.996165633E0,2.371516609E1,2.517076448E1
3.037268246E0,-7.822455406E0,1.933916450E0,2.428977394E1,2.559148217E1
3.039788871E0,-7.496844292E0,1.881243944E0,2.478776932E1,2.596488515E1
3.042309548E0,-7.195174694E0,1.847725153E0,2.521872520E1,2.629008802E1
3.044830226E0,-6.965331078E0,1.814206362E0,2.561137390E1,2.660356470E1
3.047350903E0,-6.797737122E0,1.761533856E0,2.604232979E1,2.697248918E1
3.049871580E0,-6.678027153E0,1.675342679E0,2.648286438E1,2.736320386E1
3.052392257E0,-6.553528786E0,1.526902080E0,2.693776131E1,2.776550294E1
3.054912517E0,-6.452971935E0,1.359308004E0,2.732083321E1,2.810545307E1
3.057432778E0,-6.333261967E0,1.162983418E0,2.762729263E1,2.836776403E1
3.059953038E0,-6.218340397E0,9.714473486E-1,2.785234642E1,2.855459102E1
3.062473298E0,-6.098630428E0,8.517372608E-1,2.803430557E1,2.870263121E1
3.064993559E0,-6.041169643E0,8.182184100E-1,2.820190048E1,2.885329102E1
3.067513819E0,-6.041169643E0,8.708908558E-1,2.843653297E1,2.908419827E1
3.070034080E0,-6.089053631E0,9.666589499E-1,2.871904755E1,2.937336711E1
3.072554340E0,-6.175244808E0,1.095945835E0,2.907338905E1,2.974217034E1
3.075074601E0,-6.251859188E0,1.191713929E0,2.944209671E1,3.012213445E1
3.077594861E0,-6.294954777E0,1.244386315E0,2.975813103E1,3.044209775E1
3.080115121E0,-6.314108372E0,1.263539910E0,3.001670456E1,3.069962622E1
3.082635382E0,-6.280589581E0,1.273116708E0,3.017951012E1,3.085238180E1
3.085155642E0,-6.175244808E0,1.311424017E0,3.028485680E1,3.093583735E1
3.087675903E0,-6.036381245E0,1.373673201E0,3.030879784E1,3.093457779E1
3.090196163E0,-5.849633217E0,1.464652896E0,3.026570129E1,3.086059124E1
3.092716423E0,-5.624578476E0,1.569997787E0,3.019387627E1,3.075338908E1
3.095236684E0,-5.342062473E0,1.689707875E0,3.010768509E1,3.062458890E1
3.097756944E0,-5.021239281E0,1.785475969E0,3.002149391E1,3.049083248E1
3.100277205E0,-4.686051369E0,1.866878748E0,2.993530273E1,3.035731647E1
3.102797465E0,-4.346074581E0,1.924339652E0,2.980601501E1,3.018261053E1
3.105317726E0,-3.996521235E0,1.957858443E0,2.965757561E1,2.998961791E1
3.107838038E0,-3.680486679E0,1.986588836E0,2.944688606E1,2.974242116E1
3.110358403E0,-3.374028683E0,1.991377234E0,2.922661781E1,2.948804574E1
3.112878819E0,-3.110666513E0,2.015319347E0,2.898719788E1,2.922319967E1
3.115399288E0,-2.871246338E0,2.024896145E0,2.872862434E1,2.894266948E1
3.117919861E0,-2.670133352E0,2.005742550E0,2.843174362E1,2.862720141E1
3.120440538E0,-2.492962599E0,1.986588836E0,2.813007355E1,2.831011189E1
3.122961267E0,-2.339733601E0,1.953070045E0,2.785713577E1,2.802336256E1
3.125482048E0,-2.186504602E0,1.919551253E0,2.759377289E1,2.774674362E1
3.128002882E0,-2.047641039E0,1.890820742E0,2.732083321E1,2.746262850E1
3.130523715E0,-1.923142552E0,1.857301950E0,2.709099007E1,2.722259706E1
3.133044444E0,-1.784278870E0,1.804629564E0,2.687072372E1,2.699029701E1
3.135564757E0,-1.664568782E0,1.723226666E0,2.666003418E1,2.676747507E1
3.138084965E0,-1.549647093E0,1.613093376E0,2.647328758E1,2.656761999E1
3.140605173E0,-1.429937005E0,1.474229693E0,2.626738548E1,2.634755422E1
3.143125382E0,-1.305438519E0,1.306635618E0,2.599923515E1,2.606475964E1
3.145645590E0,-1.247977614E0,1.158195019E0,2.567841148E1,2.573479513E1
3.148165642E0,-1.243189216E0,1.048061848E0,2.530491638E1,2.535710445E1
3.150685694E0,-1.315015316E0,1.000177741E0,2.491705513E1,2.497176920E1
3.153205746E0,-1.482609391E0,9.570821524E-1,2.449088860E1,2.455438374E1
3.155725798E0,-1.702875972E0,9.379284978E-1,2.407429695E1,2.415266590E1
3.158245851E0,-1.937507749E0,9.283517003E-1,2.362418747E1,2.372167799E1
3.160765903E0,-2.162562609E0,9.139865041E-1,2.317886543E1,2.329746448E1
3.163286007E0,-2.392405987E0,9.091981053E-1,2.275748634E1,2.290094828E1
3.165806111E0,-2.583942175E0,8.708908558E-1,2.234568214E1,2.251143528E1
3.168326215E0,-2.775478363E0,8.182184100E-1,2.196739960E1,2.215715249E1
3.170846319E0,-2.919130325E0,7.751228213E-1,2.160348129E1,2.181358616E1
3.173366423E0,-3.057994127E0,7.416039705E-1,2.124913788E1,2.148085578E1
3.175886528E0,-3.187281132E0,7.128735781E-1,2.090916252E1,2.116270368E1
3.178406684E0,-3.326144695E0,6.841431260E-1,2.057876205E1,2.085705487E1
3.180926892E0,-3.474585295E0,6.985083222E-1,2.019090080E1,2.049958858E1
3.183447153E0,-3.584718466E0,7.176619768E-1,1.977431107E1,2.010941628E1
3.185967465E0,-3.675698042E0,7.703344226E-1,1.934814262E1,1.970925656E1
3.188487830E0,-3.771466255E0,8.373720646E-1,1.893155098E1,1.932171763E1
3.191008194E0,-3.843292236E0,8.948329091E-1,1.855326843E1,1.896827327E1
3.193528559E0,-3.828927040E0,9.810241461E-1,1.821329117E1,1.863724942E1
3.196048923E0,-3.790619850E0,1.062427044E0,1.787810326E1,1.830639577E1
3.198569288E0,-3.714005470E0,1.129464626E0,1.756206894E1,1.798598878E1
3.201089653E0,-3.613448858E0,1.201290727E0,1.726039886E1,1.767544854E1
3.203610069E0,-3.493738890E0,1.263539910E0,1.693957520E1,1.734220148E1
3.206130486E0,-3.335721493E0,1.292270422E0,1.662354088E1,1.700409104E1
3.208650903E0,-3.187281132E0,1.301847219E0,1.631708336E1,1.667635381E1
3.211171319E0,-3.029263735E0,1.282693505E0,1.602020264E1,1.635446832E1
3.213691736E0,-2.856881142E0,1.258751512E0,1.575683975E1,1.606313245E1
3.216212153E0,-2.684498549E0,1.225232720E0,1.547911263E1,1.575787598E1
3.218732569E0,-2.497750998E0,1.182137132E0,1.520617390E1,1.545522348E1
3.221252986E0,-2.306214809E0,1.153406620E0,1.491886902E1,1.514006692E1
3.223773403E0,-2.162562609E0,1.134253025E0,1.467944908E1,1.488117711E1
3.226293819E0,-2.023699045E0,1.115099430E0,1.440172195E1,1.458589729E1
3.228814236E0,-1.908777356E0,1.091157436E0,1.416230202E1,1.433195220E1
3.231334653E0,-1.784278870E0,1.062427044E0,1.392288113E1,1.407689672E1
3.233855069E0,-1.688510776E0,1.038484931E0,1.369782639E1,1.384051904E1
3.236375486E0,-1.578377485E0,9.906009436E-1,1.347277164E1,1.360103457E1
3.238895694E0,-1.492186189E0,9.666589499E-1,1.322377491E1,1.334276103E1
3.241415903E0,-1.425148606E0,9.283517003E-1,1.296041203E1,1.307154028E1
3.243936111E0,-1.377264500E0,8.900445104E-1,1.270183849E1,1.280725333E1
3.246456319E0,-1.334168911E0,8.517372608E-1,1.245763016E1,1.255778691E1
3.248976528E0,-1.310226917E0,8.134300113E-1,1.215117264E1,1.224864725E1
3.251496788E0,-1.276708007E0,7.655459642E-1,1.188302135E1,1.197590249E1
3.254017101E0,-1.276708007E0,7.272387743E-1,1.159571743E1,1.168843541E1
3.256537465E0,-1.252766013E0,6.745663285E-1,1.126531792E1,1.135481617E1
3.259057882E0,-1.267131209E0,5.979518890E-1,1.095885944E1,1.104806627E1
3.261578403E0,-1.286284804E0,4.878185987E-1,1.068592072E1,1.077410772E1
3.264098976E0,-1.276708007E0,3.441664875E-1,1.042734718E1,1.051085169E1
3.266619601E0,-1.228824019E0,2.005143911E-1,1.007300472E1,1.014966200E1
3.269140226E0,-1.161786318E0,1.095347255E-1,9.670779228E0,9.740929945E0
3.271660798E0,-1.080383539E0,2.334346622E-2,9.215881348E0,9.279021636E0
3.274181007E0,-9.941922426E-1,-3.411737457E-2,8.727463722E0,8.783974342E0
3.276701215E0,-9.223662019E-1,-1.011550203E-1,8.195950508E0,8.248308704E0
3.279221423E0,-8.505401611E-1,-1.490390599E-1,7.702745438E0,7.750994677E0
3.281741632E0,-8.122329116E-1,-1.873462796E-1,7.247847080E0,7.295622539E0
3.284261892E0,-7.882909179E-1,-2.160767019E-1,6.769006729E0,6.818177455E0
3.286782205E0,-7.451952696E-1,-2.256535143E-1,6.323685169E0,6.371438583E0
3.289302569E0,-6.925228238E-1,-2.256535143E-1,5.873575211E0,5.918563434E0
3.291822986E0,-6.542156339E-1,-2.304419130E-1,5.452195644E0,5.496138546E0
3.294343455E0,-6.302735806E-1,-2.112883031E-1,5.026028156E0,5.069797487E0
3.296863976E0,-6.637924314E-1,-2.017114908E-1,4.657320976E0,4.708709653E0
3.299384496E0,-6.973112226E-1,-1.777694821E-1,4.264671803E0,4.324959019E0
3.301905017E0,-7.404068708E-1,-1.538274586E-1,3.910329819E0,3.982781002E0
3.304425538E0,-7.691373229E-1,-1.203086376E-1,3.589506865E0,3.672956019E0
3.306946059E0,-7.882909179E-1,-8.678980917E-2,3.249530315E0,3.344903932E0
3.309466267E0,-7.835025191E-1,-3.890577704E-2,2.943072557E0,3.045827627E0
3.311986476E0,-7.739257216E-1,1.376665942E-2,2.650979757E0,2.761674169E0
3.314506684E0,-7.404068708E-1,7.122749835E-2,2.387617588E0,2.500798560E0
3.317026892E0,-7.164648771E-1,1.334767491E-1,2.119467020E0,2.241267144E0
3.319547101E0,-6.877344251E-1,2.053027898E-1,1.875258446E0,2.007914867E0
3.322067361E0,-6.637924314E-1,2.627636492E-1,1.664568782E0,1.811202462E0
3.324587673E0,-6.446388364E-1,3.154360652E-1,1.496974587E0,1.660118085E0
3.327108038E0,-6.206967831E-1,3.202244639E-1,1.391629696E0,1.557061789E0
3.329628403E0,-5.871779919E-1,2.819172442E-1,1.295861721E0,1.450349243E0
3.332148767E0,-5.201402903E-1,1.957259923E-1,1.214458823E0,1.335576587E0
3.334669132E0,-4.387374520E-1,1.382651478E-1,1.123479128E0,1.214007065E0
3.337189496E0,-3.716998100E-1,4.728548229E-2,1.042076349E0,1.107393238E0
3.339709861E0,-3.190273643E-1,-2.932897024E-2,9.080010056E-1,9.628626454E-1
3.342230226E0,-2.855085433E-1,-1.011550203E-1,7.787141204E-1,8.355496082E-1
3.344750590E0,-2.807201445E-1,-1.634042710E-1,6.446388364E-1,7.218476187E-1
3.347270955E0,-2.567781210E-1,-2.352303118E-1,4.674678743E-1,5.829189622E-1
3.349791319E0,-2.376245260E-1,-2.926911712E-1,2.855085433E-1,4.729150720E-1
3.352311528E0,-2.136825025E-1,-3.357867897E-1,1.035492271E-1,4.112607718E-1
3.354831736E0,-1.562216580E-1,-3.836708367E-1,-7.841010392E-2,4.216119801E-1
3.357351944E0,-9.397241473E-2,-4.219780564E-1,-2.316390127E-1,4.904619527E-1
3.359872153E0,-1.256955881E-2,-4.602852762E-1,-3.513490856E-1,5.791948802E-1
3.362392361E0,7.362170517E-2,-5.416881442E-1,-4.375403523E-1,7.002055134E-1
3.364912569E0,1.837549806E-1,-6.230909824E-1,-5.285200477E-1,8.374614654E-1
3.367432778E0,2.603694201E-1,-6.997054219E-1,-6.625953317E-1,9.982046313E-1
3.369952934E0,3.513490856E-1,-7.715315223E-1,-8.062474132E-1,1.169932460E0
3.372473090E0,4.375403523E-1,-8.146271110E-1,-1.021725535E0,1.378035544E0
3.374993090E0,4.950011969E-1,-8.194155097E-1,-1.275510907E0,1.594802821E0
3.377513090E0,5.285200477E-1,-7.954735160E-1,-1.553238392E0,1.823365311E0
3.380033090E0,5.572504401E-1,-7.332242727E-1,-1.830965757E0,2.049532018E0
3.382553090E0,5.716156363E-1,-6.661866307E-1,-2.132635117E0,2.306226702E0
3.385073090E0,5.620388389E-1,-6.039373875E-1,-2.424727678E0,2.561236486E0
3.387593090E0,5.764040351E-1,-5.656301379E-1,-2.654571056E0,2.774693958E0
3.390113090E0,6.242880821E-1,-5.608417392E-1,-2.874837637E0,2.994823952E0
3.392633142E0,7.009025216E-1,-5.704185367E-1,-3.095104218E0,3.224331213E0
3.395153246E0,8.014590144E-1,-5.847837925E-1,-3.262698412E0,3.410206675E0
3.397673403E0,8.732850552E-1,-6.135141850E-1,-3.454234600E0,3.615351036E0
3.400193611E0,9.594763517E-1,-6.374561787E-1,-3.664924145E0,3.841694188E0
3.402713871E0,1.031302333E0,-6.374561787E-1,-3.851671934E0,4.037983602E0
3.405234184E0,1.083974838E0,-6.087257862E-1,-4.081515312E0,4.266651588E0
3.407754548E0,1.136647224E0,-5.608417392E-1,-4.277839661E0,4.461661409E0
3.410274965E0,1.174954534E0,-4.985924959E-1,-4.459799290E0,4.638849247E0
3.412795434E0,1.189319730E0,-4.411316514E-1,-4.627393246E0,4.798108669E0
3.415315903E0,1.208473325E0,-3.740940094E-1,-4.756680012E0,4.922027919E0
3.417836423E0,1.194108129E0,-3.118447661E-1,-4.881178856E0,5.034783849E0
3.420356996E0,1.160589218E0,-2.352303118E-1,-4.991312027E0,5.129863193E0
3.422877621E0,1.103128433E0,-1.586158574E-1,-5.053561211E0,5.174991038E0
3.425398298E0,1.031302333E0,-5.805939063E-2,-5.101445198E0,5.204968636E0
3.427918976E0,9.498994946E-1,-5.985504249E-4,-5.101445198E0,5.189128300E0
3.430439653E0,8.828618526E-1,2.334346622E-2,-5.053561211E0,5.130153105E0
3.432960330E0,8.014590144E-1,5.207388848E-2,-4.986523628E0,5.050788665E0
3.435480642E0,7.200561762E-1,7.122749835E-2,-4.909909248E0,4.962938956E0
3.438000903E0,6.578069329E-1,4.249707982E-2,-4.775833607E0,4.821110101E0
3.440521163E0,5.668272376E-1,-1.496376097E-2,-4.632181644E0,4.666757313E0
3.443041267E0,4.566939771E-1,-7.242459804E-2,-4.445434093E0,4.469418194E0
3.445561267E0,3.848679364E-1,-1.681926697E-1,-4.258686066E0,4.279347977E0
3.448081267E0,3.082534671E-1,-2.495955229E-1,-4.052784920E0,4.072147312E0
3.450601267E0,2.364274114E-1,-3.309983909E-1,-3.866037130E0,3.887377130E0
3.453121267E0,1.741781682E-1,-3.788824081E-1,-3.717596769E0,3.740911073E0
3.455641267E0,1.167173311E-1,-4.315548539E-1,-3.621828556E0,3.649315637E0
3.458161267E0,7.362170517E-2,-4.411316514E-1,-3.569156170E0,3.597067285E0
3.460681319E0,3.052607179E-2,-4.219780564E-1,-3.545214176E0,3.570369851E0
3.463201476E0,-2.214636654E-2,-4.028244317E-1,-3.516483784E0,3.539550280E0
3.465721736E0,-4.129998013E-2,-3.501519859E-1,-3.478176594E0,3.496001218E0
3.468242048E0,-6.045359373E-2,-3.214215636E-1,-3.449446201E0,3.464916385E0
3.470762465E0,-6.524199992E-2,-2.879027426E-1,-3.368043184E0,3.380955397E0
3.473282986E0,-5.087678507E-2,-2.783259451E-1,-3.291428804E0,3.303567368E0
3.475803611E0,-8.439560980E-2,-3.166331649E-1,-3.224391222E0,3.240999527E0
3.478324340E0,-1.274912357E-1,-3.836708367E-1,-3.166930199E0,3.192632802E0
3.480845121E0,-1.610100716E-1,-5.081692934E-1,-3.114257812E0,3.159550917E0
3.483365955E0,-2.136825025E-1,-6.422445774E-1,-3.090315819E0,3.163572375E0
3.485886788E0,-2.567781210E-1,-8.050503135E-1,-3.052008629E0,3.166827700E0
3.488407621E0,-2.759317458E-1,-9.822212458E-1,-2.994547844E0,3.163576093E0
3.490928455E0,-2.950853705E-1,-1.135450125E0,-2.917933226E0,3.144941442E0
3.493449288E0,-3.046621680E-1,-1.293467522E0,-2.874837637E0,3.167107309E0
3.495969809E0,-3.238157928E-1,-1.422754407E0,-2.903568029E0,3.249583677E0
3.498489913E0,-3.381809890E-1,-1.528099179E0,-2.956240654E0,3.344968204E0
3.501010017E0,-3.956418335E-1,-1.619078875E0,-3.004124641E0,3.435507783E0
3.503530121E0,-4.674678743E-1,-1.714846969E0,-3.004124641E0,3.490557434E0
3.506050226E0,-5.105634928E-1,-1.820191860E0,-3.004124641E0,3.549441977E0
3.508570330E0,-5.297171474E-1,-1.944690347E0,-2.989759445E0,3.605701366E0
3.511090434E0,-5.057750940E-1,-2.050035238E0,-2.927510023E0,3.609538455E0
3.513610538E0,-4.578910768E-1,-2.169745207E0,-2.798223257E0,3.570365793E0
3.516130642E0,-4.147954583E-1,-2.289455414E0,-2.587533474E0,3.479797529E0
3.518650746E0,-3.429693878E-1,-2.452261209E0,-2.257133722E0,3.350502303E0
3.521170903E0,-3.094505668E-1,-2.667739153E0,-1.854907751E0,3.263935448E0
3.523691111E0,-2.663549483E-1,-2.859275341E0,-1.486200690E0,3.233449076E0
3.526211319E0,-2.663549483E-1,-3.026869535E0,-1.227626920E0,3.277186598E0
3.528731528E0,-2.950853705E-1,-3.117849112E0,-1.045667648E0,3.301738828E0
3.531251736E0,-3.716998100E-1,-3.132214308E0,-9.834183455E-1,3.303942926E0
3.533771944E0,-4.626794755E-1,-3.046023130E0,-1.012148738E0,3.242957643E0
3.536292153E0,-5.728127360E-1,-2.931101322E0,-1.074398041E0,3.173925100E0
3.538812361E0,-6.637924314E-1,-2.739565372E0,-1.127070427E0,3.035807400E0
3.541332569E0,-7.404068708E-1,-2.533663988E0,-1.127070427E0,2.870181751E0
3.543852673E0,-8.218097091E-1,-2.303820610E0,-1.045667648E0,2.660146882E0
3.546372465E0,-8.792705536E-1,-2.107496023E0,-9.403226972E-1,2.469587611E0
3.548892257E0,-9.367313981E-1,-1.935113549E0,-7.344213724E-1,2.271894565E0
3.551412048E0,-9.989806414E-1,-1.844133854E0,-4.471171796E-1,2.144459318E0
3.553931840E0,-1.051653147E0,-1.781884670E0,-1.167173311E-1,2.072368272E0
3.556451632E0,-1.113902330E0,-1.781884670E0,2.232593149E-1,2.113228833E0
3.558971423E0,-1.185728431E0,-1.820191860E0,5.632359385E-1,2.244166893E0
3.561491215E0,-1.252766013E0,-1.887229443E0,8.409633636E-1,2.416252684E0
3.564011007E0,-1.329380512E0,-1.987785935E0,1.080383539E0,2.624075849E0
3.566530798E0,-1.391629696E0,-2.107496023E0,1.334168911E0,2.856252682E0
3.569050590E0,-1.468244195E0,-2.270301819E0,1.659780383E0,3.172519864E0
3.571570382E0,-1.540070295E0,-2.490568399E0,2.071583033E0,3.586949084E0
3.574090226E0,-1.559223890E0,-2.763507366E0,2.531269789E0,4.058999735E0
3.576610121E0,-1.535281897E0,-3.084330320E0,2.933495522E0,4.524995028E0
3.579130069E0,-1.487397790E0,-3.366846085E0,3.244741917E0,4.906766231E0
3.581650069E0,-1.429937005E0,-3.606266260E0,3.474585295E0,5.207938090E0
3.584170121E0,-1.420360208E0,-3.745130062E0,3.675698042E0,5.436375483E0
3.586690226E0,-1.449090600E0,-3.840898037E0,3.886387825E0,5.652996694E0
3.589210382E0,-1.520916581E0,-3.922300816E0,4.130596638E0,5.895715353E0
3.591730590E0,-1.602319479E0,-3.984550238E0,4.413112164E0,6.157891464E0
3.594250851E0,-1.635838270E0,-4.018068790E0,4.824914932E0,6.488501195E0
3.596771111E0,-1.688510776E0,-3.994127035E0,5.260659695E0,6.817525932E0
3.599291371E0,-1.717241168E0,-3.931877851E0,5.686827660E0,7.123804426E0
3.601811632E0,-1.731606364E0,-3.821744442E0,6.084265232E0,7.390701901E0
3.604331944E0,-1.731606364E0,-3.658938646E0,6.486490726E0,7.645969825E0
3.606852309E0,-1.736394763E0,-3.472191095E0,6.936600685E0,7.949063268E0
3.609372726E0,-1.726817966E0,-3.280654907E0,7.415441036E0,8.290558646E0
3.611893194E0,-1.726817966E0,-3.132214308E0,7.918223381E0,8.688551563E0
3.614413715E0,-1.717241168E0,-3.017292738E0,8.435371399E0,9.121867316E0
3.616934288E0,-1.717241168E0,-2.931101322E0,8.995614052E0,9.615682210E0
3.619454913E0,-1.702875972E0,-2.892794132E0,9.531915665E0,1.010571426E1
3.621975590E0,-1.693299174E0,-2.859275341E0,1.004906273E1,1.058425148E1
3.624496267E0,-1.683722377E0,-2.892794132E0,1.059494114E1,1.111107361E1
3.627016944E0,-1.621473074E0,-2.978985548E0,1.116476154E1,1.166856590E1
3.629536996E0,-1.554435492E0,-3.132214308E0,1.178725338E1,1.229497371E1
3.632056944E0,-1.453878999E0,-3.352480888E0,1.244326496E1,1.296872142E1
3.634576840E0,-1.353322506E0,-3.591901064E0,1.310885239E1,1.365925496E1
3.637096684E0,-1.252766013E0,-3.759495258E0,1.374092197E1,1.430091480E1
3.639616528E0,-1.243189216E0,-3.826532841E0,1.431074238E1,1.486557165E1
3.642136371E0,-1.324592113E0,-3.788225651E0,1.485183144E1,1.538447577E1
3.644656215E0,-1.468244195E0,-3.644573450E0,1.536419106E1,1.585865768E1
3.647176059E0,-1.674145579E0,-3.438672304E0,1.584303093E1,1.629812442E1
3.649695903E0,-1.856104851E0,-3.132214308E0,1.631708336E1,1.671834624E1
3.652215746E0,-2.018910646E0,-2.801814556E0,1.684859657E1,1.719887704E1
3.654735590E0,-2.157774210E0,-2.404376984E0,1.741841507E1,1.771547916E1
3.657255486E0,-2.253542423E0,-1.973420739E0,1.806484985E1,1.831151668E1
3.659775434E0,-2.358887196E0,-1.547252893E0,1.872565079E1,1.893695693E1
3.662295434E0,-2.454655409E0,-1.116296530E0,1.941996765E1,1.960628967E1
3.664815486E0,-2.560000181E0,-7.044938207E-1,2.013344002E1,2.030776500E1
3.667335590E0,-2.665344954E0,-3.022679687E-1,2.079424095E1,2.096654207E1
3.669855798E0,-2.746747971E0,6.165069342E-2,2.140236664E1,2.157799163E1
3.672376111E0,-2.828150749E0,4.016273320E-1,2.195303345E1,2.213809881E1
3.674896476E0,-2.885611534E0,6.937199235E-1,2.246539307E1,2.266058002E1
3.677416892E0,-2.943072557E0,9.522937536E-1,2.289156151E1,2.309961315E1
3.679937361E0,-2.995744944E0,1.162983418E0,2.325069046E1,2.347171969E1
3.682457882E0,-3.029263735E0,1.287482023E0,2.354757309E1,2.377650620E1
3.684978455E0,-3.000533342E0,1.335366011E0,2.381093407E1,2.403636794E1
3.687499028E0,-2.914341927E0,1.306635618E0,2.403120041E1,2.424250974E1
3.690019601E0,-2.799420357E0,1.191713929E0,2.422752571E1,2.441782010E1
3.692539913E0,-2.650979757E0,9.906009436E-1,2.445258141E1,2.461580227E1
3.695059757E0,-2.449866772E0,7.224503756E-1,2.474467278E1,2.487614545E1
3.697579601E0,-2.272696018E0,4.734533727E-1,2.504155350E1,2.514893053E1
3.700099340E0,-2.105101824E0,2.531868219E-1,2.528097343E1,2.536972950E1
3.702619080E0,-1.956661344E0,1.382651478E-1,2.543899155E1,2.551450434E1
3.705138819E0,-1.846528053E0,1.334767491E-1,2.552997208E1,2.559701069E1
3.707658559E0,-1.832162857E0,2.483984232E-1,2.558264351E1,2.564936981E1
3.710178351E0,-1.870470047E0,4.399345517E-1,2.568320084E1,2.575498021E1
3.712698194E0,-1.932719350E0,6.937199235E-1,2.587473679E1,2.595609091E1
3.715218090E0,-2.023699045E0,9.570821524E-1,2.613331032E1,2.622901585E1
3.717738038E0,-2.081159830E0,1.225232720E0,2.643019104E1,2.654029804E1
3.720258038E0,-2.138620615E0,1.493383288E0,2.668876457E1,2.681592896E1
3.722778142E0,-2.210446835E0,1.795052767E0,2.691860771E1,2.706879626E1
3.725298351E0,-2.277484417E0,2.125452518E0,2.718197060E1,2.735989783E1
3.727818663E0,-2.373252392E0,2.427121878E0,2.749321747E1,2.770199008E1
3.730339080E0,-2.507327795E0,2.704849482E0,2.787150002E1,2.811446988E1
3.732859548E0,-2.646191359E0,2.968211651E0,2.828330231E1,2.856147403E1
3.735380069E0,-2.785055161E0,3.169324398E0,2.865200996E1,2.896098797E1
3.737900642E0,-2.895188332E0,3.298611403E0,2.900156403E1,2.933178598E1
3.740421267E0,-2.981379747E0,3.380014181E0,2.930323410E1,2.964781020E1
3.742941892E0,-3.072359324E0,3.423109770E0,2.952350044E1,2.987966115E1
3.745462517E0,-3.158550501E0,3.456628799E0,2.972461319E1,3.009115075E1
3.747983142E0,-3.225588322E0,3.447052002E0,2.987784195E1,3.024850454E1
3.750503767E0,-3.259107113E0,3.447052002E0,3.000712776E1,3.037979037E1
3.753024392E0,-3.235165119E0,3.394379377E0,3.006937790E1,3.043280454E1
3.755545017E0,-3.216011524E0,3.370437384E0,3.005980110E1,3.041864922E1
3.758065642E0,-3.201646328E0,3.322553396E0,3.003107071E1,3.038346768E1
3.760586215E0,-3.158550501E0,3.308188200E0,2.999276352E1,3.033951901E1
3.763106371E0,-3.110666513E0,3.308188200E0,2.991614914E1,3.025882243E1
3.765626371E0,-3.024475336E0,3.293823004E0,2.980601501E1,3.013959608E1
3.768146371E0,-2.914341927E0,3.289034605E0,2.968151665E1,3.000505904E1
3.770666319E0,-2.770689964E0,3.289034605E0,2.951871109E1,2.983033315E1
3.773186215E0,-2.607884169E0,3.284246206E0,2.932238770E1,2.962076557E1
3.775705955E0,-2.421136379E0,3.265092611E0,2.914042664E1,2.942256270E1
3.778225694E0,-2.267907619E0,3.226785421E0,2.894889069E1,2.921632799E1
3.780745434E0,-2.085948229E0,3.178901196E0,2.879087448E1,2.904085133E1
3.783265173E0,-1.894412041E0,3.073556423E0,2.863764572E1,2.886434303E1
3.785784965E0,-1.693299174E0,2.953846455E0,2.850357056E1,2.870620152E1
3.788304809E0,-1.473032594E0,2.771887064E0,2.835512924E1,2.852834621E1
3.790824757E0,-1.233612418E0,2.546832085E0,2.819711113E1,2.833875843E1
3.793344809E0,-9.894038439E-1,2.312200308E0,2.798642159E1,2.809919898E1
3.795864965E0,-7.547720671E-1,2.072780132E0,2.771827126E1,2.780591052E1
3.798385226E0,-5.488707423E-1,1.842936754E0,2.735435295E1,2.742185808E1
3.800905590E0,-3.621230125E-1,1.665765882E0,2.697606850E1,2.702987570E1
3.803426059E0,-1.993172914E-1,1.536478996E0,2.654032516E1,2.658551024E1
3.805946632E0,-3.651157767E-2,1.445499301E0,2.615246391E1,2.619240672E1
3.808467257E0,1.167173311E-1,1.354519606E0,2.580769920E1,2.584348437E1
3.810987934E0,2.890998423E-1,1.244386315E0,2.545814514E1,2.549017909E1
3.813508611E0,4.327519536E-1,1.158195019E0,2.515168762E1,2.518205870E1
3.816029288E0,5.811924338E-1,1.057638645E0,2.485959435E1,2.488886930E1
3.818549861E0,7.248445749E-1,9.379284978E-1,2.450046539E1,2.452912379E1
3.821070278E0,8.206126094E-1,8.086416125E-1,2.409823799E1,2.412576176E1
3.823590590E0,9.211691022E-1,6.889315248E-1,2.363855171E1,2.366652290E1
3.826110903E0,9.977835417E-1,5.883750916E-1,2.314534569E1,2.317431303E1
3.828631059E0,1.074398041E0,4.973953962E-1,2.263777542E1,2.266871433E1
3.831150955E0,1.146224022E0,4.016273320E-1,2.210147476E1,2.213482145E1
3.833670851E0,1.208473325E0,3.106476665E-1,2.158432770E1,2.162036336E1
3.836190746E0,1.256357312E0,2.148796022E-1,2.112463951E1,2.116305747E1
3.838710642E0,1.313818216E0,1.430535465E-1,2.066974258E1,2.071194924E1
3.841230538E0,1.366490602E0,3.770867735E-2,2.023878479E1,2.028489902E1
3.843750486E0,1.443105102E0,-7.721300423E-2,1.982698250E1,1.987958121E1
3.846270486E0,1.505354285E0,-2.017114908E-1,1.940560341E1,1.946494857E1
3.848790538E0,1.558026791E0,-3.309983909E-1,1.898422432E1,1.905092597E1
3.851310642E0,1.586757183E0,-4.602852762E-1,1.854847908E1,1.862191551E1
3.853830798E0,1.620275974E0,-5.656301379E-1,1.810794640E1,1.818908888E1
3.856351007E0,1.605910778E0,-7.044938207E-1,1.767699051E1,1.776376240E1
3.858871215E0,1.615487576E0,-8.050503135E-1,1.722687912E1,1.732117982E1
3.861391423E0,1.620275974E0,-9.008184075E-1,1.678634644E1,1.688840415E1
3.863911632E0,1.639429569E0,-1.010951638E0,1.633144760E1,1.644463235E1
3.866431840E0,1.629852772E0,-1.111508131E0,1.586218452E1,1.598439140E1
3.868952048E0,1.620275974E0,-1.188122630E0,1.543122864E1,1.556148280E1
3.871472257E0,1.586757183E0,-1.264737010E0,1.502900219E1,1.516536399E1
3.873992465E0,1.519719481E0,-1.307832718E0,1.465071869E1,1.478727601E1
3.876512673E0,1.438316703E0,-1.336563110E0,1.433947277E1,1.447327313E1
3.879032830E0,1.347337008E0,-1.331774712E0,1.401864910E1,1.414607591E1
3.881552882E0,1.270722508E0,-1.303044319E0,1.371219158E1,1.383245669E1
3.884072934E0,1.184531331E0,-1.236006618E0,1.342009926E1,1.352885401E1
3.886592934E0,1.093551636E0,-1.159392118E0,1.315673733E1,1.325291600E1
3.889112778E0,9.690531492E-1,-1.068412542E0,1.290773964E1,1.298808346E1
3.891632621E0,8.349778652E-1,-9.726444483E-1,1.265874290E1,1.272348212E1
3.894152465E0,7.009025216E-1,-9.056068063E-1,1.241453457E1,1.246723933E1
3.896672309E0,6.051344872E-1,-8.433575630E-1,1.217032623E1,1.221451106E1
3.899192153E0,5.285200477E-1,-7.906851172E-1,1.198357773E1,1.202125832E1
3.901711996E0,4.806360006E-1,-7.380126715E-1,1.178725338E1,1.182011066E1
3.904231840E0,4.231751561E-1,-6.901286244E-1,1.160050583E1,1.162871834E1
3.906751736E0,3.896563351E-1,-6.422445774E-1,1.142333508E1,1.144800832E1
3.909271684E0,3.369838893E-1,-6.135141850E-1,1.126052952E1,1.128226408E1
3.911791684E0,3.034650683E-1,-5.943605900E-1,1.109293461E1,1.111299032E1
3.914311736E0,2.460042238E-1,-5.704185367E-1,1.092534065E1,1.094298697E1
3.916831840E0,2.029085904E-1,-5.608417392E-1,1.076732349E1,1.078382912E1
3.919352048E0,1.598129570E-1,-5.847837925E-1,1.060451794E1,1.062183190E1
3.921872361E0,1.167173311E-1,-6.230909824E-1,1.047044277E1,1.048961568E1
3.924392778E0,6.404489279E-2,-7.092822790E-1,1.035073280E1,1.037520374E1
3.926913298E0,3.531447425E-2,-7.906851172E-1,1.022623444E1,1.025681728E1
3.929433923E0,1.795651275E-3,-8.433575630E-1,1.009694672E1,1.013210680E1
3.931954653E0,-1.256955881E-2,-9.199720025E-1,9.972448349E0,1.001480067E1
3.934475486E0,-4.129998013E-2,-9.726444483E-1,9.804854393E0,9.853066151E0
3.936996371E0,-5.087678507E-2,-1.015740037E0,9.603741646E0,9.657441166E0
3.939517309E0,-7.960720360E-2,-1.030105233E0,9.383475304E0,9.440183413E0
3.942038298E0,-1.035492271E-1,-1.030105233E0,9.163208008E0,9.221508566E0
3.944559288E0,-1.466448605E-1,-1.068412542E0,8.986037254E0,9.050517975E0
3.947080278E0,-2.184709013E-1,-1.106719732E0,8.794501305E0,8.866555774E0
3.949601267E0,-2.855085433E-1,-1.145026922E0,8.622118950E0,8.702501765E0
3.952122257E0,-3.238157928E-1,-1.178545833E0,8.421006203E0,8.509240413E0
3.954642882E0,-3.716998100E-1,-1.221641421E0,8.191162109E0,8.290096816E0
3.957163507E0,-3.908534348E-1,-1.269525409E0,7.970896244E0,8.080819767E0
3.959684132E0,-4.004302323E-1,-1.283890605E0,7.726687431E0,7.842857777E0
3.962204757E0,-4.100070298E-1,-1.259948611E0,7.468113422E0,7.584740889E0
3.964725330E0,-3.956418335E-1,-1.236006618E0,7.204751492E0,7.320702758E0
3.967245903E0,-3.860650361E-1,-1.192911029E0,6.950965881E0,7.063144457E0
3.969766476E0,-3.764882088E-1,-1.140238523E0,6.697180748E0,6.803978045E0
3.972287048E0,-3.477577865E-1,-1.087566137E0,6.448183537E0,6.548496507E0
3.974807621E0,-3.142389655E-1,-1.044470549E0,6.218340397E0,6.313273489E0
3.977328194E0,-2.998737693E-1,-1.025316834E0,5.993285179E0,6.087747213E0
3.979848767E0,-2.663549483E-1,-1.039682031E0,5.763442039E0,5.862520603E0
3.982369340E0,-2.232593149E-1,-1.039682031E0,5.552752495E0,5.653657552E0
3.984889913E0,-1.466448605E-1,-1.049258947E0,5.313332081E0,5.417928281E0
3.987410486E0,-1.179144308E-1,-1.068412542E0,5.073912144E0,5.186520376E0
3.989931059E0,-8.918401599E-2,-1.082777739E0,4.820126534E0,4.941050619E0
3.992451580E0,-6.045359373E-2,-1.068412542E0,4.556764603E0,4.680733238E0
3.994972101E0,-4.608838260E-2,-1.092354536E0,4.302978992E0,4.439706159E0
3.997492517E0,-1.735796221E-2,-1.106719732E0,4.063559055E0,4.211608014E0
4.000012934E0,1.795651275E-3,-1.145026922E0,3.838503838E0,4.005646214E0
4.002533351E0,1.137245819E-2,-1.188122630E0,3.608660460E0,3.799236111E0
4.005053767E0,2.094926499E-2,-1.202487826E0,3.359663486E0,3.568438676E0
4.007574184E0,4.967968538E-2,-1.216853023E0,3.125031710E0,3.353956251E0
4.010094601E0,6.404489279E-2,-1.221641421E0,2.847304344E0,3.098975886E0
4.012615017E0,5.925649032E-2,-1.216853023E0,2.579153776E0,2.852415960E0
4.015135434E0,4.489128292E-2,-1.197699428E0,2.315791607E0,2.607563981E0
4.017655851E0,1.616086066E-2,-1.164180517E0,2.085948229E0,2.388882053E0
4.020176319E0,-2.693476900E-2,-1.159392118E0,1.846528053E0,2.180500268E0
4.022696840E0,-8.918401599E-2,-1.101931334E0,1.597531080E0,1.942758864E0
4.025217413E0,-1.370680481E-1,-1.054047346E0,1.329380512E0,1.702074030E0
4.027738038E0,-2.041056901E-1,-9.870096445E-1,1.032499433E0,1.442879846E0
4.030258715E0,-3.046621680E-1,-9.630676508E-1,7.691373229E-1,1.269602520E0
4.032779444E0,-3.764882088E-1,-9.103952050E-1,5.105634928E-1,1.109611590E0
4.035300226E0,-4.770447016E-1,-8.912416101E-1,2.567781210E-1,1.042985263E0
4.037821059E0,-5.584475398E-1,-8.960300088E-1,-1.795651275E-3,1.055810900E0
4.040341944E0,-6.542156339E-1,-9.056068063E-1,-2.603694201E-1,1.147132956E0
4.042862882E0,-7.356184721E-1,-9.343371987E-1,-5.045779943E-1,1.291789259E0
4.045383819E0,-8.026561141E-1,-9.630676508E-1,-7.775170207E-1,1.475225018E0
4.047904757E0,-8.553285599E-1,-9.822212458E-1,-1.060032845E0,1.679290074E0
4.050425538E0,-9.080010056E-1,-9.870096445E-1,-1.337760210E0,1.894269317E0
4.052946215E0,-9.415197968E-1,-9.917980433E-1,-1.615487576E0,2.116582858E0
4.055466840E0,-9.606734514E-1,-9.965864420E-1,-1.898003340E0,2.349147653E0
4.057987309E0,-9.894038439E-1,-1.001374841E0,-2.156577110E0,2.575363347E0
4.060507778E0,-9.941922426E-1,-1.020528436E0,-2.367266893E0,2.762942100E0
4.063028194E0,-9.798270464E-1,-1.082777739E0,-2.558803082E0,2.946174109E0
4.065548611E0,-9.510966539E-1,-1.140238523E0,-2.726397276E0,3.104508148E0
4.068069028E0,-8.744821548E-1,-1.188122630E0,-2.870049238E0,3.227001248E0
4.070589392E0,-7.835025191E-1,-1.240795016E0,-3.028066635E0,3.364912483E0
4.073109705E0,-6.877344251E-1,-1.269525409E0,-3.157353401E0,3.471822850E0
4.075630017E0,-5.919663906E-1,-1.288679123E0,-3.315370798E0,3.605939769E0
4.078150330E0,-5.392939448E-1,-1.279102206E0,-3.468599796E0,3.736057409E0
4.080670642E0,-4.674678743E-1,-1.255160213E0,-3.645770550E0,3.884018058E0
4.083190955E0,-4.243722558E-1,-1.216853023E0,-3.837306738E0,4.047931088E0
4.085711267E0,-3.908534348E-1,-1.164180517E0,-4.000112534E0,4.184373665E0
4.088231632E0,-3.429693878E-1,-1.077989340E0,-4.134187698E0,4.286163429E0
4.090752048E0,-2.998737693E-1,-1.010951638E0,-4.229955673E0,4.359411943E0
4.093272517E0,-2.328361124E-1,-9.295488000E-1,-4.311358929E0,4.416569873E0
4.095793038E0,-1.705868691E-1,-8.672995567E-1,-4.335300922E0,4.424493473E0
4.098313611E0,-1.179144308E-1,-8.050503135E-1,-4.320935726E0,4.396873363E0
4.100834236E0,-8.439560980E-2,-7.332242727E-1,-4.296993732E0,4.359919218E0
4.103354913E0,-6.524199992E-2,-7.044938207E-1,-4.282628059E0,4.340676348E0
4.105875642E0,-7.003039867E-2,-6.566098332E-1,-4.253897667E0,4.304844491E0
4.108396423E0,-8.439560980E-2,-6.230909824E-1,-4.234744072E0,4.281170675E0
4.110917257E0,-9.397241473E-2,-5.943605900E-1,-4.206013680E0,4.248840595E0
4.113438090E0,-1.322796494E-1,-5.464765429E-1,-4.210802078E0,4.248174744E0
4.115958923E0,-1.801636815E-1,-5.033808947E-1,-4.172494888E0,4.206609665E0
4.118479757E0,-2.424129248E-1,-4.985924959E-1,-4.182071686E0,4.218658802E0
4.121000434E0,-2.998737693E-1,-4.938040972E-1,-4.201225281E0,4.240761798E0
4.123520538E0,-3.573346138E-1,-5.129576921E-1,-4.177283287E0,4.223802704E0
4.126040642E0,-4.195838571E-1,-5.656301379E-1,-4.047996521E0,4.108803220E0
4.128560746E0,-4.674678743E-1,-6.518214345E-1,-3.904344320E0,3.985887852E0
4.131080851E0,-5.057750940E-1,-7.140706778E-1,-3.708019972E0,3.809871060E0
4.133600955E0,-5.249287486E-1,-8.050503135E-1,-3.482964993E0,3.613129023E0
4.136121059E0,-5.297171474E-1,-8.912416101E-1,-3.257910013E0,3.418901800E0
4.138641163E0,-5.297171474E-1,-9.534908533E-1,-3.032855034E0,3.223035017E0
4.141161319E0,-5.297171474E-1,-1.015740037E0,-2.850895643E0,3.072447566E0
4.143681528E0,-5.297171474E-1,-1.063624144E0,-2.716820478E0,2.965301011E0
4.146201788E0,-5.249287486E-1,-1.101931334E0,-2.635417461E0,2.904346407E0
4.148722101E0,-4.914098978E-1,-1.125873327E0,-2.577956676E0,2.855684692E0
4.151242465E0,-4.483142793E-1,-1.178545833E0,-2.491765499E0,2.792642346E0
4.153762882E0,-3.908534348E-1,-1.231218219E0,-2.419939280E0,2.743131573E0
4.156283298E0,-3.621230125E-1,-1.293467522E0,-2.328959703E0,2.688539493E0
4.158803715E0,-2.855085433E-1,-1.370081902E0,-2.257133722E0,2.655803492E0
4.161324132E0,-2.041056901E-1,-1.441908002E0,-2.142211914E0,2.590333898E0
4.163844548E0,-1.179144308E-1,-1.513733983E0,-1.993771434E0,2.506076398E0
4.166364965E0,-3.172317147E-2,-1.575983286E0,-1.850119352E0,2.430570158E0
4.168885382E0,3.531447425E-2,-1.619078875E0,-1.716044068E0,2.359548846E0
4.171405798E0,8.798690885E-2,-1.657386184E0,-1.562815189E0,2.279706554E0
4.173926215E0,1.167173311E-1,-1.705270171E0,-1.409586191E0,2.215514054E0
4.176446684E0,1.502361596E-1,-1.757942557E0,-1.337760210E0,2.214166958E0
