"Time (s)","Acceleration x (m/s^2)","Acceleration y (m/s^2)","Acceleration z (m/s^2)","Absolute acceleration (m/s^2)"
2.238291700E-2,1.167173311E-1,1.047463268E-1,9.742605209E0,9.743867353E0
2.488875000E-2,1.119289324E-1,9.516951442E-2,9.752182007E0,9.753288636E0
2.739786500E-2,1.023521200E-1,9.038111567E-2,9.785700798E0,9.786653402E0
2.991057300E-2,1.071405262E-1,8.080431074E-2,9.828796387E0,9.829712450E0
3.242698000E-2,1.071405262E-1,9.995792061E-2,9.847949982E0,9.849040030E0
3.494708400E-2,1.023521200E-1,8.559270948E-2,9.871891975E0,9.872793589E0
3.747067700E-2,1.215057373E-1,8.080431074E-2,9.871891975E0,9.872970382E0
3.999744800E-2,1.167173311E-1,8.559270948E-2,9.847949982E0,9.849013549E0
4.252703200E-2,1.358709484E-1,6.165069342E-2,9.804854393E0,9.805989567E0
4.505890700E-2,1.406593472E-1,6.643909961E-2,9.809642792E0,9.810876154E0
4.759255200E-2,1.358709484E-1,5.686229095E-2,9.828796387E0,9.829899931E0
5.012734400E-2,1.406593472E-1,2.813187055E-2,9.804854393E0,9.805903636E0
5.266260500E-2,1.646013707E-1,3.770867735E-2,9.814431190E0,9.815883819E0
5.519458400E-2,1.693897694E-1,4.249707982E-2,9.819219589E0,9.820772487E0
5.771442700E-2,1.789665818E-1,4.728548229E-2,9.833584785E0,9.835326872E0
6.023427100E-2,1.981201917E-1,5.207388848E-2,9.819219589E0,9.821356151E0
6.275411500E-2,1.837549806E-1,4.249707982E-2,9.766547203E0,9.768368142E0
6.527395900E-2,1.933317930E-1,5.686229095E-2,9.776124001E0,9.778200805E0
6.779380200E-2,2.029085904E-1,6.165069342E-2,9.776124001E0,9.778423860E0
7.031364600E-2,2.076970041E-1,5.686229095E-2,9.795277596E0,9.797644336E0
7.283349000E-2,1.837549806E-1,8.080431074E-2,9.790489197E0,9.792546857E0
7.535338600E-2,1.837549806E-1,8.559270948E-2,9.790489197E0,9.792587539E0
7.787333400E-2,1.885433793E-1,8.559270948E-2,9.780912399E0,9.783103908E0
8.039333400E-2,2.029085904E-1,7.122749835E-2,9.780912399E0,9.783276170E0
8.291333400E-2,2.076970041E-1,9.038111567E-2,9.756970406E0,9.759599289E0
8.543333400E-2,1.981201917E-1,7.122749835E-2,9.742605209E0,9.744879744E0
8.795333400E-2,2.124854028E-1,8.559270948E-2,9.718663216E0,9.721362603E0
9.047333400E-2,2.172738016E-1,8.080431074E-2,9.709086418E0,9.711853392E0
9.299333400E-2,2.029085904E-1,8.080431074E-2,9.737816811E0,9.740265780E0
9.551296900E-2,2.029085904E-1,8.559270948E-2,9.728240013E0,9.730732334E0
9.803250000E-2,2.220622003E-1,9.516951442E-2,9.761758804E0,9.764748016E0
1.005520320E-1,2.172738016E-1,8.559270948E-2,9.752182007E0,9.754977597E0
1.030715630E-1,2.124854028E-1,9.516951442E-2,9.766547203E0,9.769321960E0
1.055910940E-1,2.029085904E-1,9.995792061E-2,9.761758804E0,9.764379060E0
1.081106250E-1,1.885433793E-1,9.516951442E-2,9.756970406E0,9.759255983E0
1.106301570E-1,1.598129570E-1,1.143231317E-1,9.790489197E0,9.792460808E0
1.131496880E-1,1.598129570E-1,1.334767491E-1,9.776124001E0,9.778341204E0
1.156692190E-1,1.646013707E-1,1.526303589E-1,9.780912399E0,9.783487977E0
1.181887500E-1,1.502361596E-1,1.622071713E-1,9.809642792E0,9.812134007E0
1.207082820E-1,1.358709484E-1,1.669955701E-1,9.824007988E0,9.826366642E0
1.232278650E-1,1.262941360E-1,1.478419602E-1,9.824007988E0,9.825932037E0
1.257475000E-1,1.358709484E-1,1.382651478E-1,9.833584785E0,9.835495305E0
1.282671880E-1,1.119289324E-1,1.669955701E-1,9.828796387E0,9.830852151E0
1.307869270E-1,1.119289324E-1,1.622071713E-1,9.814431190E0,9.816409672E0
1.333066670E-1,1.215057373E-1,1.574187577E-1,9.814431190E0,9.816445584E0
1.358264070E-1,1.119289324E-1,1.717839688E-1,9.814431190E0,9.816572590E0
1.383461460E-1,1.167173311E-1,1.717839688E-1,9.819219589E0,9.821415683E0
1.408658860E-1,1.071405262E-1,1.957259923E-1,9.819219589E0,9.821754482E0
1.433856250E-1,1.119289324E-1,2.053027898E-1,9.814431190E0,9.817216353E0
1.459051570E-1,1.023521200E-1,2.053027898E-1,9.814431190E0,9.817111835E0
1.484246880E-1,8.798690885E-2,1.957259923E-1,9.824007988E0,9.826351475E0
1.509442190E-1,8.319851011E-2,1.909375787E-1,9.819219589E0,9.821428231E0
1.534637500E-1,1.023521200E-1,2.053027898E-1,9.804854393E0,9.807537655E0
1.559832820E-1,1.023521200E-1,2.053027898E-1,9.795277596E0,9.797963481E0
1.585028130E-1,9.756372124E-2,2.196680009E-1,9.776124001E0,9.779078340E0
1.610223440E-1,1.071405262E-1,2.340332121E-1,9.790489197E0,9.793872030E0
1.635418750E-1,1.119289324E-1,2.244564146E-1,9.804854393E0,9.808061910E0
1.660614070E-1,1.119289324E-1,2.196680009E-1,9.795277596E0,9.798379728E0
1.685809380E-1,1.454477459E-1,2.196680009E-1,9.785700798E0,9.789246610E0
1.711004690E-1,1.406593472E-1,2.196680009E-1,9.776124001E0,9.779603241E0
1.736200000E-1,1.406593472E-1,2.292448133E-1,9.766547203E0,9.770249869E0
1.761395840E-1,1.454477459E-1,2.196680009E-1,9.761758804E0,9.765313309E0
1.786592190E-1,1.598129570E-1,2.244564146E-1,9.752182007E0,9.756073737E0
1.811789070E-1,1.550245583E-1,2.292448133E-1,9.742605209E0,9.746534875E0
1.836986460E-1,1.550245583E-1,2.340332121E-1,9.733028412E0,9.737075856E0
1.862184380E-1,1.598129570E-1,2.292448133E-1,9.737816811E0,9.741825784E0
1.887382820E-1,1.598129570E-1,2.244564146E-1,9.756970406E0,9.760860226E0
1.912581250E-1,1.646013707E-1,2.196680009E-1,9.756970406E0,9.760830863E0
1.937779690E-1,1.741781682E-1,2.244564146E-1,9.761758804E0,9.765892364E0
1.962978130E-1,1.789665818E-1,2.292448133E-1,9.752182007E0,9.756517622E0
1.988176570E-1,1.693897694E-1,2.100912035E-1,9.733028412E0,9.736769139E0
2.013375000E-1,1.789665818E-1,2.196680009E-1,9.737816811E0,9.741938170E0
2.038573440E-1,1.981201917E-1,2.148796022E-1,9.756970406E0,9.761347056E0
2.063770320E-1,1.933317930E-1,2.148796022E-1,9.771335602E0,9.775609949E0
2.088967190E-1,1.837549806E-1,2.100912035E-1,9.790489197E0,9.794466954E0
2.114164070E-1,1.837549806E-1,2.100912035E-1,9.800065994E0,9.804039866E0
2.139360940E-1,1.741781682E-1,2.100912035E-1,9.819219589E0,9.823011233E0
2.164558340E-1,1.837549806E-1,2.100912035E-1,9.833584785E0,9.837545118E0
2.189756250E-1,1.741781682E-1,2.100912035E-1,9.833584785E0,9.837370893E0
2.214954690E-1,1.646013707E-1,2.100912035E-1,9.828796387E0,9.832419353E0
2.240153650E-1,1.741781682E-1,2.053027898E-1,9.819219589E0,9.822909987E0
2.265353130E-1,1.598129570E-1,2.148796022E-1,9.800065994E0,9.803724135E0
2.290552610E-1,1.598129570E-1,2.148796022E-1,9.790489197E0,9.794150915E0
2.315752090E-1,1.598129570E-1,2.148796022E-1,9.804854393E0,9.808510748E0
2.340951570E-1,1.741781682E-1,2.148796022E-1,9.809642792E0,9.813541816E0
2.366151050E-1,1.646013707E-1,2.005143911E-1,9.824007988E0,9.827432655E0
2.391350520E-1,1.646013707E-1,1.861491799E-1,9.824007988E0,9.827150049E0
2.416550000E-1,1.406593472E-1,1.909375787E-1,9.819219589E0,9.822083056E0
2.441749480E-1,1.406593472E-1,1.909375787E-1,9.838373184E0,9.841231078E0
2.466948960E-1,1.502361596E-1,2.005143911E-1,9.824007988E0,9.827202546E0
2.492148440E-1,1.262941360E-1,2.148796022E-1,9.814431190E0,9.817595584E0
2.517343750E-1,1.262941360E-1,2.196680009E-1,9.800065994E0,9.803341151E0
2.542539070E-1,1.215057373E-1,2.148796022E-1,9.790489197E0,9.793600747E0
2.567734380E-1,1.119289324E-1,2.340332121E-1,9.785700798E0,9.789138866E0
2.592928130E-1,9.277531505E-2,2.340332121E-1,9.761758804E0,9.765004545E0
2.618121880E-1,1.023521200E-1,2.244564146E-1,9.771335602E0,9.774449145E0
2.643315630E-1,1.119289324E-1,2.053027898E-1,9.776124001E0,9.778920073E0
2.668509380E-1,1.071405262E-1,2.100912035E-1,9.766547203E0,9.769394130E0
2.693703130E-1,1.119289324E-1,2.244564146E-1,9.737816811E0,9.741046402E0
2.718896880E-1,1.023521200E-1,2.244564146E-1,9.723451614E0,9.726580485E0
2.744090630E-1,1.023521200E-1,2.388216257E-1,9.728240013E0,9.731709278E0
2.769284900E-1,1.023521200E-1,2.579752207E-1,9.718663216E0,9.722625256E0
2.794479690E-1,1.119289324E-1,2.292448133E-1,9.723451614E0,9.726797652E0
2.819675000E-1,1.071405262E-1,2.292448133E-1,9.728240013E0,9.731530508E0
2.844870840E-1,1.119289324E-1,2.292448133E-1,9.742605209E0,9.745944671E0
2.870067710E-1,1.071405262E-1,2.388216257E-1,9.747393608E0,9.750907497E0
2.895265630E-1,1.215057373E-1,2.436100245E-1,9.756970406E0,9.760767438E0
2.920465110E-1,1.215057373E-1,2.627636492E-1,9.776124001E0,9.780409442E0
2.945665630E-1,1.167173311E-1,2.723404467E-1,9.771335602E0,9.775826906E0
2.970867190E-1,1.119289324E-1,2.771288455E-1,9.776124001E0,9.780691640E0
2.996069800E-1,1.310825497E-1,2.914940715E-1,9.790489197E0,9.795704678E0
3.021272920E-1,1.310825497E-1,2.867056429E-1,9.776124001E0,9.781205613E0
3.046476570E-1,1.215057373E-1,2.914940715E-1,9.790489197E0,9.795581205E0
3.071680210E-1,1.119289324E-1,3.010708690E-1,9.790489197E0,9.795756758E0
3.096883860E-1,1.262941360E-1,2.867056429E-1,9.804854393E0,9.809858307E0
3.122087500E-1,1.358709484E-1,2.723404467E-1,9.809642792E0,9.814363043E0
3.147290630E-1,1.550245583E-1,2.867056429E-1,9.809642792E0,9.815056008E0
3.172489590E-1,1.598129570E-1,2.914940715E-1,9.809642792E0,9.815273846E0
3.197688550E-1,1.646013707E-1,2.771288455E-1,9.819219589E0,9.824508504E0
3.222887500E-1,1.693897694E-1,2.962824702E-1,9.843161583E0,9.849076411E0
3.248086460E-1,1.598129570E-1,2.723404467E-1,9.852738380E0,9.857797071E0
3.273285420E-1,1.502361596E-1,2.867056429E-1,9.843161583E0,9.848482166E0
3.298484380E-1,1.693897694E-1,2.867056429E-1,9.843161583E0,9.848792970E0
3.323683340E-1,1.837549806E-1,2.914940715E-1,9.838373184E0,9.844405599E0
3.348882820E-1,1.741781682E-1,2.962824702E-1,9.838373184E0,9.844374447E0
3.374082820E-1,1.502361596E-1,3.010708690E-1,9.838373184E0,9.844125227E0
3.399283340E-1,1.646013707E-1,3.010708690E-1,9.828796387E0,9.834783968E0
3.424484380E-1,1.741781682E-1,2.914940715E-1,9.809642792E0,9.815518251E0
3.449685940E-1,1.789665818E-1,2.819172442E-1,9.800065994E0,9.805753406E0
3.474888020E-1,1.693897694E-1,2.723404467E-1,9.819219589E0,9.824455993E0
3.500090110E-1,1.646013707E-1,2.675520480E-1,9.814431190E0,9.819457078E0
3.525292190E-1,1.693897694E-1,2.531868219E-1,9.800065994E0,9.804799333E0
3.550494270E-1,1.598129570E-1,2.292448133E-1,9.795277596E0,9.799263061E0
3.575696360E-1,1.502361596E-1,2.292448133E-1,9.809642792E0,9.813471139E0
3.600898440E-1,1.550245583E-1,2.292448133E-1,9.795277596E0,9.799186138E0
3.626100520E-1,1.598129570E-1,2.244564146E-1,9.776124001E0,9.780006203E0
3.651302610E-1,1.454477459E-1,2.388216257E-1,9.752182007E0,9.756190071E0
3.676502610E-1,1.406593472E-1,2.148796022E-1,9.756970406E0,9.760349881E0
3.701702610E-1,1.406593472E-1,2.340332121E-1,9.771335602E0,9.775149924E0
3.726902610E-1,1.454477459E-1,2.244564146E-1,9.752182007E0,9.755848996E0
3.752102610E-1,1.406593472E-1,2.100912035E-1,9.756970406E0,9.760245635E0
3.777302610E-1,1.406593472E-1,1.909375787E-1,9.742605209E0,9.745491187E0
3.802503130E-1,1.262941360E-1,1.957259923E-1,9.756970406E0,9.759750528E0
3.827704170E-1,1.215057373E-1,1.909375787E-1,9.766547203E0,9.769169109E0
3.852905730E-1,1.071405262E-1,1.813607812E-1,9.761758804E0,9.764031226E0
3.878107820E-1,1.358709484E-1,1.765723825E-1,9.756970406E0,9.759513831E0
3.903309900E-1,1.215057373E-1,1.622071713E-1,9.761758804E0,9.763862441E0
3.928511980E-1,1.119289324E-1,1.622071713E-1,9.761758804E0,9.763747959E0
3.953714070E-1,1.119289324E-1,1.478419602E-1,9.752182007E0,9.753944803E0
3.978916670E-1,1.310825497E-1,1.526303589E-1,9.747393608E0,9.749469771E0
4.004119270E-1,1.310825497E-1,1.382651478E-1,9.771335602E0,9.773192893E0
4.029321880E-1,1.215057373E-1,1.238999367E-1,9.780912399E0,9.782451748E0
4.054524480E-1,1.310825497E-1,1.238999367E-1,9.780912399E0,9.782575386E0
4.079727090E-1,1.310825497E-1,1.286883354E-1,9.756970406E0,9.758699443E0
4.104929690E-1,1.406593472E-1,1.382651478E-1,9.747393608E0,9.749388927E0
4.130132300E-1,1.454477459E-1,1.191115379E-1,9.747393608E0,9.749206365E0
4.155332300E-1,1.358709484E-1,1.143231317E-1,9.771335602E0,9.772948897E0
4.180530730E-1,1.310825497E-1,1.286883354E-1,9.790489197E0,9.792212316E0
4.205728650E-1,1.310825497E-1,1.191115379E-1,9.800065994E0,9.801666373E0
4.230926570E-1,1.310825497E-1,1.238999367E-1,9.814431190E0,9.816088499E0
4.256124480E-1,1.502361596E-1,1.095347255E-1,9.814431190E0,9.816192151E0
4.281322400E-1,1.502361596E-1,1.095347255E-1,9.814431190E0,9.816192151E0
4.306518230E-1,1.646013707E-1,1.191115379E-1,9.809642792E0,9.811746678E0
4.331714070E-1,1.598129570E-1,1.191115379E-1,9.800065994E0,9.802092697E0
4.356909900E-1,1.741781682E-1,1.143231317E-1,9.800065994E0,9.802280413E0
4.382105730E-1,1.789665818E-1,1.143231317E-1,9.800065994E0,9.802366669E0
4.407301570E-1,1.789665818E-1,1.095347255E-1,9.814431190E0,9.816673901E0
4.432497400E-1,1.837549806E-1,9.995792061E-2,9.809642792E0,9.811872868E0
4.457693750E-1,1.741781682E-1,1.143231317E-1,9.795277596E0,9.797493097E0
4.482890630E-1,1.981201917E-1,1.238999367E-1,9.804854393E0,9.807638476E0
4.508088020E-1,1.933317930E-1,1.143231317E-1,9.809642792E0,9.812213749E0
4.533285940E-1,1.885433793E-1,1.095347255E-1,9.790489197E0,9.792917092E0
4.558484380E-1,1.933317930E-1,1.191115379E-1,9.780912399E0,9.783548032E0
4.583683340E-1,1.837549806E-1,1.334767491E-1,9.795277596E0,9.797910242E0
4.608883340E-1,1.837549806E-1,1.286883354E-1,9.776124001E0,9.778697615E0
4.634084380E-1,1.933317930E-1,1.382651478E-1,9.761758804E0,9.764652036E0
4.659286460E-1,1.837549806E-1,1.286883354E-1,9.780912399E0,9.783484755E0
4.684489070E-1,1.789665818E-1,1.238999367E-1,9.766547203E0,9.768972541E0
4.709692190E-1,1.885433793E-1,1.238999367E-1,9.771335602E0,9.773939801E0
4.734895840E-1,1.981201917E-1,1.334767491E-1,9.747393608E0,9.750320498E0
4.760099480E-1,1.933317930E-1,1.526303589E-1,9.752182007E0,9.755292261E0
4.785303130E-1,1.741781682E-1,1.478419602E-1,9.761758804E0,9.764431895E0
4.810504690E-1,1.741781682E-1,1.574187577E-1,9.766547203E0,9.769368606E0
4.835701570E-1,1.741781682E-1,1.526303589E-1,9.756970406E0,9.759718518E0
4.860898440E-1,1.598129570E-1,1.526303589E-1,9.766547203E0,9.769047061E0
4.886094800E-1,1.693897694E-1,1.430535465E-1,9.780912399E0,9.783424992E0
4.911291150E-1,1.454477459E-1,1.526303589E-1,9.785700798E0,9.787971760E0
4.936487500E-1,1.358709484E-1,1.382651478E-1,9.785700798E0,9.787620665E0
4.961683860E-1,1.454477459E-1,1.430535465E-1,9.790489197E0,9.792614466E0
4.986880730E-1,1.310825497E-1,1.669955701E-1,9.785700798E0,9.788003385E0
5.012077610E-1,1.262941360E-1,1.526303589E-1,9.785700798E0,9.787705877E0
5.037275000E-1,1.215057373E-1,1.622071713E-1,9.771335602E0,9.773437177E0
5.062472920E-1,1.167173311E-1,1.574187577E-1,9.766547203E0,9.768513084E0
5.087671360E-1,1.262941360E-1,1.430535465E-1,9.785700798E0,9.787561220E0
5.112870320E-1,1.358709484E-1,1.526303589E-1,9.795277596E0,9.797408847E0
5.138069270E-1,1.454477459E-1,1.430535465E-1,9.776124001E0,9.778252392E0
5.163268750E-1,1.358709484E-1,1.334767491E-1,9.785700798E0,9.787554192E0
5.188468230E-1,1.310825497E-1,1.382651478E-1,9.814431190E0,9.816280328E0
5.213667710E-1,1.215057373E-1,1.334767491E-1,9.804854393E0,9.806515658E0
5.238867190E-1,1.262941360E-1,1.430535465E-1,9.828796387E0,9.830648653E0
5.264066670E-1,1.215057373E-1,1.286883354E-1,9.824007988E0,9.825602133E0
5.289266150E-1,1.215057373E-1,1.334767491E-1,9.857526779E0,9.859179169E0
5.314465630E-1,1.167173311E-1,1.382651478E-1,9.862315178E0,9.863974901E0
5.339665630E-1,1.119289324E-1,1.143231317E-1,9.847949982E0,9.849249550E0
5.364866150E-1,1.215057373E-1,1.143231317E-1,9.800065994E0,9.801485954E0
5.390067190E-1,1.358709484E-1,1.286883354E-1,9.780912399E0,9.782702539E0
5.415268230E-1,1.502361596E-1,1.238999367E-1,9.771335602E0,9.773275886E0
5.440469270E-1,1.502361596E-1,1.286883354E-1,9.766547203E0,9.768550346E0
5.465670320E-1,1.550245583E-1,1.334767491E-1,9.785700798E0,9.787838820E0
5.490871360E-1,1.789665818E-1,1.478419602E-1,9.771335602E0,9.774092578E0
5.516072400E-1,1.550245583E-1,1.382651478E-1,9.776124001E0,9.778330652E0
5.541273440E-1,1.502361596E-1,1.382651478E-1,9.747393608E0,9.749531799E0
5.566474480E-1,1.454477459E-1,1.286883354E-1,9.752182007E0,9.754115523E0
5.591675520E-1,1.550245583E-1,1.334767491E-1,9.771335602E0,9.773476766E0
5.616876570E-1,1.598129570E-1,1.334767491E-1,9.795277596E0,9.797490464E0
5.642076570E-1,1.502361596E-1,1.286883354E-1,9.800065994E0,9.802062287E0
5.667272920E-1,1.502361596E-1,1.478419602E-1,9.780912399E0,9.783183302E0
5.692468230E-1,1.741781682E-1,1.574187577E-1,9.771335602E0,9.774155623E0
5.717663550E-1,1.598129570E-1,1.526303589E-1,9.766547203E0,9.769047061E0
5.742858340E-1,1.502361596E-1,1.574187577E-1,9.756970406E0,9.759396655E0
5.768053130E-1,1.646013707E-1,1.669955701E-1,9.747393608E0,9.750213499E0
5.793247920E-1,1.406593472E-1,1.574187577E-1,9.742605209E0,9.744892097E0
5.818442710E-1,1.502361596E-1,1.669955701E-1,9.752182007E0,9.754768696E0
5.843638020E-1,1.693897694E-1,1.813607812E-1,9.747393608E0,9.750552127E0
5.868833860E-1,1.646013707E-1,1.717839688E-1,9.752182007E0,9.755083661E0
5.894030210E-1,1.646013707E-1,1.669955701E-1,9.752182007E0,9.755000514E0
5.919227090E-1,1.837549806E-1,1.813607812E-1,9.733028412E0,9.736452110E0
5.944424480E-1,1.502361596E-1,1.909375787E-1,9.737816811E0,9.740847206E0
5.969622400E-1,1.454477459E-1,1.909375787E-1,9.747393608E0,9.750348422E0
5.994820840E-1,1.262941360E-1,1.957259923E-1,9.747393608E0,9.750176461E0
6.020019800E-1,1.358709484E-1,2.053027898E-1,9.756970406E0,9.760075904E0
6.045219270E-1,1.358709484E-1,2.053027898E-1,9.756970406E0,9.760075904E0
6.070419270E-1,1.262941360E-1,1.909375787E-1,9.766547203E0,9.769229838E0
6.095619800E-1,1.358709484E-1,2.005143911E-1,9.800065994E0,9.803058728E0
6.120820840E-1,1.358709484E-1,1.957259923E-1,9.800065994E0,9.802961954E0
6.146022400E-1,1.262941360E-1,2.100912035E-1,9.780912399E0,9.783983641E0
6.171224480E-1,1.262941360E-1,2.196680009E-1,9.785700798E0,9.788980761E0
6.196426570E-1,1.167173311E-1,2.292448133E-1,9.790489197E0,9.793868226E0
6.221628650E-1,1.119289324E-1,2.196680009E-1,9.780912399E0,9.784019086E0
6.246830730E-1,1.023521200E-1,2.196680009E-1,9.804854393E0,9.807848880E0
6.272030730E-1,1.071405262E-1,2.292448133E-1,9.819219589E0,9.822479606E0
6.297226050E-1,1.023521200E-1,2.292448133E-1,9.828796387E0,9.832002215E0
6.322421360E-1,1.071405262E-1,2.292448133E-1,9.843161583E0,9.846413673E0
6.347616150E-1,1.071405262E-1,2.244564146E-1,9.828796387E0,9.831942747E0
6.372810420E-1,1.119289324E-1,2.100912035E-1,9.800065994E0,9.802956691E0
6.398004690E-1,1.167173311E-1,2.053027898E-1,9.809642792E0,9.812485102E0
6.423198960E-1,1.262941360E-1,2.244564146E-1,9.800065994E0,9.803449616E0
6.448393230E-1,1.550245583E-1,2.148796022E-1,9.819219589E0,9.822793859E0
6.473587500E-1,1.550245583E-1,2.292448133E-1,9.824007988E0,9.827905105E0
6.498781770E-1,1.310825497E-1,2.531868219E-1,9.814431190E0,9.818571474E0
6.523976050E-1,1.310825497E-1,2.627636492E-1,9.804854393E0,9.809250585E0
6.549170320E-1,1.550245583E-1,2.675520480E-1,9.809642792E0,9.814515190E0
6.574364590E-1,1.646013707E-1,2.675520480E-1,9.780912399E0,9.785955501E0
6.599558860E-1,1.693897694E-1,2.627636492E-1,9.790489197E0,9.795479383E0
6.624753130E-1,1.646013707E-1,2.531868219E-1,9.785700798E0,9.790359405E0
6.649947920E-1,1.502361596E-1,2.531868219E-1,9.800065994E0,9.804487134E0
6.675143230E-1,1.454477459E-1,2.579752207E-1,9.785700798E0,9.790181120E0
6.700339070E-1,1.693897694E-1,2.531868219E-1,9.790489197E0,9.795227163E0
6.725535940E-1,1.502361596E-1,2.579752207E-1,9.785700798E0,9.790253430E0
6.750733860E-1,1.646013707E-1,2.723404467E-1,9.795277596E0,9.800445199E0
6.775933340E-1,1.598129570E-1,2.483984232E-1,9.795277596E0,9.799729850E0
6.801134380E-1,1.550245583E-1,2.531868219E-1,9.780912399E0,9.785416881E0
6.826336460E-1,1.598129570E-1,2.627636492E-1,9.780912399E0,9.785746383E0
6.851539590E-1,1.550245583E-1,2.819172442E-1,9.776124001E0,9.781416586E0
6.876743750E-1,1.598129570E-1,2.819172442E-1,9.752182007E0,9.757564830E0
6.901948440E-1,1.454477459E-1,2.819172442E-1,9.737816811E0,9.742982532E0
6.927153650E-1,1.502361596E-1,2.867056429E-1,9.761758804E0,9.767123731E0
6.952358860E-1,1.502361596E-1,2.723404467E-1,9.766547203E0,9.771498580E0
6.977564070E-1,1.550245583E-1,2.723404467E-1,9.766547203E0,9.771573374E0
7.002763020E-1,1.502361596E-1,2.771288455E-1,9.776124001E0,9.781205027E0
7.027961980E-1,1.358709484E-1,2.723404467E-1,9.776124001E0,9.780860428E0
7.053160940E-1,1.358709484E-1,2.531868219E-1,9.766547203E0,9.770773191E0
7.078359900E-1,1.406593472E-1,2.436100245E-1,9.780912399E0,9.784956733E0
7.103557300E-1,1.215057373E-1,2.627636492E-1,9.780912399E0,9.785195744E0
7.128754690E-1,1.358709484E-1,2.483984232E-1,9.766547203E0,9.770650283E0
7.153952090E-1,1.262941360E-1,2.627636492E-1,9.804854393E0,9.809187765E0
7.179149480E-1,1.310825497E-1,2.388216257E-1,9.804854393E0,9.808638441E0
7.204346880E-1,1.262941360E-1,2.627636492E-1,9.800065994E0,9.804401483E0
7.229544270E-1,1.167173311E-1,2.483984232E-1,9.795277596E0,9.799121792E0
7.254742190E-1,1.071405262E-1,2.531868219E-1,9.809642792E0,9.813494503E0
7.279940630E-1,1.215057373E-1,2.388216257E-1,9.790489197E0,9.794155304E0
7.305139590E-1,1.167173311E-1,2.292448133E-1,9.776124001E0,9.779507993E0
7.330339070E-1,1.071405262E-1,2.388216257E-1,9.780912399E0,9.784414250E0
7.355538550E-1,1.167173311E-1,2.388216257E-1,9.776124001E0,9.779737173E0
7.380738550E-1,1.167173311E-1,2.053027898E-1,9.780912399E0,9.783763056E0
7.405938550E-1,1.167173311E-1,2.196680009E-1,9.790489197E0,9.793648742E0
7.431138550E-1,1.262941360E-1,2.196680009E-1,9.785700798E0,9.788980761E0
7.456338550E-1,1.262941360E-1,2.148796022E-1,9.771335602E0,9.774513947E0
7.481538550E-1,1.119289324E-1,2.148796022E-1,9.766547203E0,9.769551965E0
7.506738550E-1,1.262941360E-1,2.100912035E-1,9.756970406E0,9.760049181E0
7.531938550E-1,1.215057373E-1,2.148796022E-1,9.752182007E0,9.755305776E0
7.557138550E-1,1.167173311E-1,2.148796022E-1,9.766547203E0,9.769607999E0
7.582338550E-1,1.167173311E-1,2.196680009E-1,9.761758804E0,9.764927645E0
7.607538550E-1,1.406593472E-1,2.053027898E-1,9.756970406E0,9.760143738E0
7.632738550E-1,1.358709484E-1,2.148796022E-1,9.766547203E0,9.769855599E0
7.657938550E-1,1.310825497E-1,2.100912035E-1,9.756970406E0,9.760112317E0
7.683138550E-1,1.262941360E-1,2.100912035E-1,9.776124001E0,9.779196746E0
7.708338550E-1,1.454477459E-1,2.148796022E-1,9.800065994E0,9.803500486E0
7.733539070E-1,1.502361596E-1,2.100912035E-1,9.790489197E0,9.793895442E0
7.758740110E-1,1.502361596E-1,2.100912035E-1,9.780912399E0,9.784321979E0
7.783941670E-1,1.502361596E-1,2.148796022E-1,9.795277596E0,9.798786013E0
7.809143750E-1,1.550245583E-1,2.005143911E-1,9.785700798E0,9.788982518E0
7.834346360E-1,1.550245583E-1,2.005143911E-1,9.790489197E0,9.793769313E0
7.859549480E-1,1.550245583E-1,1.957259923E-1,9.780912399E0,9.784098765E0
7.884752610E-1,1.646013707E-1,1.909375787E-1,9.790489197E0,9.793734195E0
7.909955730E-1,1.693897694E-1,2.005143911E-1,9.790489197E0,9.794007230E0
7.935158860E-1,1.693897694E-1,2.100912035E-1,9.809642792E0,9.813354315E0
7.960361980E-1,1.646013707E-1,2.005143911E-1,9.804854393E0,9.808285747E0
7.985562500E-1,1.646013707E-1,2.100912035E-1,9.785700798E0,9.789339714E0
8.010758860E-1,1.837549806E-1,2.196680009E-1,9.780912399E0,9.785104357E0
8.035955210E-1,1.741781682E-1,2.196680009E-1,9.800065994E0,9.804074947E0
8.061151570E-1,1.646013707E-1,2.196680009E-1,9.804854393E0,9.808696005E0
8.086347920E-1,1.550245583E-1,2.053027898E-1,9.819219589E0,9.822589027E0
8.111544270E-1,1.502361596E-1,2.053027898E-1,9.804854393E0,9.808154251E0
8.136740630E-1,1.550245583E-1,2.005143911E-1,9.814431190E0,9.817703307E0
8.161936980E-1,1.693897694E-1,1.957259923E-1,9.809642792E0,9.813057284E0
8.187133860E-1,1.550245583E-1,2.053027898E-1,9.804854393E0,9.808228766E0
8.212331250E-1,1.550245583E-1,1.957259923E-1,9.804854393E0,9.808032980E0
8.237529170E-1,1.598129570E-1,2.053027898E-1,9.790489197E0,9.793945483E0
8.262727610E-1,1.550245583E-1,1.909375787E-1,9.776124001E0,9.779217261E0
8.287926050E-1,1.454477459E-1,2.100912035E-1,9.785700798E0,9.789036391E0
8.313124480E-1,1.454477459E-1,2.100912035E-1,9.790489197E0,9.793823159E0
8.338322920E-1,1.262941360E-1,2.100912035E-1,9.785700798E0,9.788770537E0
8.363521360E-1,1.454477459E-1,1.957259923E-1,9.780912399E0,9.783951711E0
8.388719800E-1,1.454477459E-1,2.053027898E-1,9.776124001E0,9.779361163E0
8.413918230E-1,1.310825497E-1,2.100912035E-1,9.776124001E0,9.779259758E0
8.439116670E-1,1.310825497E-1,2.196680009E-1,9.771335602E0,9.774683428E0
8.464315110E-1,1.215057373E-1,2.053027898E-1,9.771335602E0,9.774247404E0
8.489513550E-1,1.071405262E-1,1.957259923E-1,9.761758804E0,9.764308614E0
8.514711980E-1,1.119289324E-1,1.813607812E-1,9.756970406E0,9.759297685E0
8.539910420E-1,1.167173311E-1,1.861491799E-1,9.780912399E0,9.783379877E0
8.565108860E-1,1.167173311E-1,1.909375787E-1,9.780912399E0,9.783472158E0
8.590307300E-1,1.215057373E-1,1.717839688E-1,9.780912399E0,9.783175391E0
8.615505730E-1,1.215057373E-1,1.717839688E-1,9.776124001E0,9.778388101E0
8.640704170E-1,1.262941360E-1,1.765723825E-1,9.761758804E0,9.764172416E0
8.665902610E-1,1.167173311E-1,1.669955701E-1,9.766547203E0,9.768672107E0
8.691101050E-1,1.071405262E-1,1.813607812E-1,9.756970406E0,9.759243942E0
8.716299480E-1,1.071405262E-1,1.717839688E-1,9.742605209E0,9.744708569E0
8.741497920E-1,1.071405262E-1,1.669955701E-1,9.761758804E0,9.763774965E0
8.766696360E-1,1.023521200E-1,1.430535465E-1,9.780912399E0,9.782493937E0
8.791894800E-1,1.167173311E-1,1.430535465E-1,9.780912399E0,9.782654784E0
8.817093750E-1,1.262941360E-1,1.382651478E-1,9.780912399E0,9.782704883E0
8.842293230E-1,1.262941360E-1,1.238999367E-1,9.795277596E0,9.796875246E0
8.867493230E-1,1.406593472E-1,1.430535465E-1,9.785700798E0,9.787757122E0
8.892693750E-1,1.454477459E-1,1.382651478E-1,9.776124001E0,9.778183511E0
8.917894800E-1,1.406593472E-1,1.382651478E-1,9.771335602E0,9.773326033E0
8.943096360E-1,1.502361596E-1,1.143231317E-1,9.776124001E0,9.777946674E0
8.968298440E-1,1.502361596E-1,1.191115379E-1,9.790489197E0,9.792366270E0
8.993501050E-1,1.502361596E-1,1.191115379E-1,9.785700798E0,9.787578790E0
9.018704170E-1,1.502361596E-1,1.095347255E-1,9.790489197E0,9.792254463E0
9.043907300E-1,1.598129570E-1,1.047463268E-1,9.790489197E0,9.792353685E0
9.069110420E-1,1.502361596E-1,1.047463268E-1,9.800065994E0,9.801777195E0
9.094313550E-1,1.502361596E-1,9.995792061E-2,9.795277596E0,9.796939607E0
9.119516670E-1,1.646013707E-1,9.516951442E-2,9.790489197E0,9.792335245E0
9.144718750E-1,1.693897694E-1,9.995792061E-2,9.780912399E0,9.782889749E0
9.169919270E-1,1.646013707E-1,1.095347255E-1,9.771335602E0,9.773335711E0
9.195119270E-1,1.646013707E-1,1.095347255E-1,9.771335602E0,9.773335711E0
9.220319270E-1,1.789665818E-1,1.095347255E-1,9.780912399E0,9.783162794E0
9.245522920E-1,1.598129570E-1,9.516951442E-2,9.780912399E0,9.782680859E0
9.270726570E-1,1.646013707E-1,8.559270948E-2,9.785700798E0,9.787459314E0
9.295919270E-1,1.598129570E-1,7.601590455E-2,9.795277596E0,9.796876123E0
9.321111980E-1,1.693897694E-1,9.038111567E-2,9.795277596E0,9.797159017E0
9.346304690E-1,1.693897694E-1,9.038111567E-2,9.776124001E0,9.778009108E0
9.371497920E-1,1.598129570E-1,9.995792061E-2,9.761758804E0,9.763578582E0
9.396691670E-1,1.598129570E-1,9.995792061E-2,9.752182007E0,9.754003571E0
9.421886460E-1,1.646013707E-1,9.995792061E-2,9.766547203E0,9.768445601E0
9.447082300E-1,1.550245583E-1,1.047463268E-1,9.776124001E0,9.777914138E0
9.472279170E-1,1.550245583E-1,1.143231317E-1,9.776124001E0,9.778021419E0
9.497477090E-1,1.550245583E-1,1.286883354E-1,9.771335602E0,9.773412543E0
9.522676570E-1,1.646013707E-1,1.382651478E-1,9.756970406E0,9.759338213E0
9.547877610E-1,1.550245583E-1,1.143231317E-1,9.761758804E0,9.763659014E0
9.573079690E-1,1.454477459E-1,1.382651478E-1,9.756970406E0,9.759033958E0
9.598282820E-1,1.358709484E-1,1.382651478E-1,9.766547203E0,9.768470834E0
9.623486460E-1,1.550245583E-1,1.526303589E-1,9.761758804E0,9.764182689E0
9.648690630E-1,1.502361596E-1,1.430535465E-1,9.747393608E0,9.749600883E0
9.673894800E-1,1.454477459E-1,1.478419602E-1,9.766547203E0,9.768748976E0
9.699098960E-1,1.406593472E-1,1.622071713E-1,9.771335602E0,9.773694064E0
9.724299480E-1,1.454477459E-1,1.717839688E-1,9.780912399E0,9.783502039E0
9.749497920E-1,1.358709484E-1,1.717839688E-1,9.780912399E0,9.783364350E0
9.774695840E-1,1.358709484E-1,1.861491799E-1,9.766547203E0,9.769265924E0
9.799890630E-1,1.358709484E-1,1.765723825E-1,9.756970406E0,9.759513831E0
9.825085420E-1,1.358709484E-1,1.909375787E-1,9.752182007E0,9.754997282E0
9.850280210E-1,1.310825497E-1,2.005143911E-1,9.747393608E0,9.750336959E0
9.875475520E-1,1.262941360E-1,2.148796022E-1,9.756970406E0,9.760153428E0
9.900671360E-1,1.262941360E-1,1.909375787E-1,9.756970406E0,9.759655673E0
9.925867710E-1,1.215057373E-1,2.053027898E-1,9.761758804E0,9.764673463E0
9.951064590E-1,1.023521200E-1,2.053027898E-1,9.780912399E0,9.783602228E0
9.976262500E-1,1.071405262E-1,2.053027898E-1,9.780912399E0,9.783653494E0
1.000146146E0,1.215057373E-1,1.957259923E-1,9.800065994E0,9.802773373E0
1.002666146E0,1.215057373E-1,2.148796022E-1,9.804854393E0,9.807961386E0
1.005186250E0,1.119289324E-1,2.196680009E-1,9.795277596E0,9.798379728E0
1.007706407E0,1.262941360E-1,2.148796022E-1,9.804854393E0,9.808021876E0
1.010226615E0,1.262941360E-1,2.196680009E-1,9.814431190E0,9.817701555E0
1.012746875E0,1.215057373E-1,2.148796022E-1,9.809642792E0,9.812748269E0
1.015267188E0,1.262941360E-1,2.244564146E-1,9.809642792E0,9.813023112E0
1.017787500E0,1.406593472E-1,2.292448133E-1,9.814431190E0,9.818115798E0
1.020307813E0,1.358709484E-1,2.340332121E-1,9.795277596E0,9.799015034E0
1.022827761E0,1.358709484E-1,2.388216257E-1,9.800065994E0,9.803917083E0
1.025347240E0,1.598129570E-1,2.340332121E-1,9.800065994E0,9.804162647E0
1.027866719E0,1.502361596E-1,2.388216257E-1,9.800065994E0,9.804126691E0
1.030386198E0,1.502361596E-1,2.483984232E-1,9.790489197E0,9.794792055E0
1.032905730E0,1.646013707E-1,2.340332121E-1,9.790489197E0,9.794669156E0
1.035425313E0,1.598129570E-1,2.388216257E-1,9.800065994E0,9.804278119E0
1.037944948E0,1.550245583E-1,2.436100245E-1,9.785700798E0,9.789960090E0
1.040464636E0,1.741781682E-1,2.292448133E-1,9.800065994E0,9.804294197E0
1.042984375E0,1.646013707E-1,2.292448133E-1,9.809642792E0,9.813701570E0
1.045504167E0,1.598129570E-1,2.148796022E-1,9.809642792E0,9.813297363E0
1.048024011E0,1.646013707E-1,2.244564146E-1,9.819219589E0,9.823163830E0
1.050543907E0,1.550245583E-1,2.148796022E-1,9.800065994E0,9.803647247E0
1.053063802E0,1.598129570E-1,2.340332121E-1,9.804854393E0,9.808949046E0
1.055583698E0,1.693897694E-1,2.244564146E-1,9.795277596E0,9.799313075E0
1.058103594E0,1.646013707E-1,2.292448133E-1,9.790489197E0,9.794555912E0
1.060623490E0,1.598129570E-1,2.292448133E-1,9.800065994E0,9.804049513E0
1.063143230E0,1.598129570E-1,2.244564146E-1,9.785700798E0,9.789579203E0
1.065662709E0,1.741781682E-1,2.148796022E-1,9.780912399E0,9.784822872E0
1.068182188E0,1.741781682E-1,2.100912035E-1,9.790489197E0,9.794291963E0
1.070701667E0,1.598129570E-1,2.100912035E-1,9.776124001E0,9.779687059E0
1.073221094E0,1.454477459E-1,2.100912035E-1,9.776124001E0,9.779462860E0
1.075740521E0,1.454477459E-1,2.148796022E-1,9.771335602E0,9.774780188E0
1.078259948E0,1.502361596E-1,2.005143911E-1,9.766547203E0,9.769760549E0
1.080779375E0,1.550245583E-1,1.909375787E-1,9.747393608E0,9.750495983E0
1.083298802E0,1.550245583E-1,2.005143911E-1,9.780912399E0,9.784195726E0
1.085818230E0,1.550245583E-1,1.909375787E-1,9.756970406E0,9.760069737E0
1.088337657E0,1.406593472E-1,1.813607812E-1,9.771335602E0,9.774030705E0
1.090857136E0,1.502361596E-1,1.909375787E-1,9.776124001E0,9.779142526E0
1.093376667E0,1.646013707E-1,1.909375787E-1,9.780912399E0,9.784160574E0
1.095896250E0,1.406593472E-1,1.861491799E-1,9.776124001E0,9.778907763E0
1.098415886E0,1.262941360E-1,1.957259923E-1,9.771335602E0,9.774111638E0
1.100935573E0,1.310825497E-1,1.909375787E-1,9.790489197E0,9.793228196E0
1.103455313E0,1.167173311E-1,1.957259923E-1,9.800065994E0,9.802715190E0
1.105975105E0,1.167173311E-1,2.053027898E-1,9.800065994E0,9.802911081E0
1.108494948E0,1.119289324E-1,2.005143911E-1,9.790489197E0,9.793181956E0
1.111014792E0,1.262941360E-1,1.861491799E-1,9.790489197E0,9.793073084E0
1.113534636E0,1.071405262E-1,1.909375787E-1,9.785700798E0,9.788149792E0
1.116054480E0,1.167173311E-1,2.005143911E-1,9.780912399E0,9.783663747E0
1.118573959E0,1.119289324E-1,2.005143911E-1,9.766547203E0,9.769246561E0
1.121093282E0,1.119289324E-1,1.861491799E-1,9.776124001E0,9.778536704E0
1.123612605E0,1.215057373E-1,1.957259923E-1,9.766547203E0,9.769263871E0
1.126131927E0,1.167173311E-1,1.957259923E-1,9.766547203E0,9.769205488E0
1.128651250E0,1.071405262E-1,2.005143911E-1,9.776124001E0,9.778767079E0
1.131170625E0,1.119289324E-1,2.053027898E-1,9.776124001E0,9.778920073E0
1.133690052E0,1.167173311E-1,2.053027898E-1,9.780912399E0,9.783763056E0
1.136209532E0,1.167173311E-1,2.053027898E-1,9.790489197E0,9.793337066E0
1.138729063E0,1.406593472E-1,2.100912035E-1,9.804854393E0,9.808113633E0
1.141248646E0,1.262941360E-1,2.292448133E-1,9.804854393E0,9.808347112E0
1.143768282E0,1.215057373E-1,2.340332121E-1,9.785700798E0,9.789253051E0
1.146287969E0,1.215057373E-1,2.292448133E-1,9.785700798E0,9.789139744E0
1.148807709E0,1.167173311E-1,2.244564146E-1,9.800065994E0,9.803330919E0
1.151327500E0,1.215057373E-1,2.100912035E-1,9.785700798E0,9.788709929E0
1.153847344E0,1.262941360E-1,2.053027898E-1,9.804854393E0,9.807816735E0
1.156367240E0,1.406593472E-1,2.100912035E-1,9.804854393E0,9.808113633E0
1.158887188E0,1.406593472E-1,2.148796022E-1,9.780912399E0,9.784283605E0
1.161407188E0,1.598129570E-1,1.957259923E-1,9.790489197E0,9.793749413E0
1.163927240E0,1.406593472E-1,2.100912035E-1,9.780912399E0,9.784179614E0
1.166447344E0,1.454477459E-1,2.196680009E-1,9.752182007E0,9.755740001E0
1.168967500E0,1.454477459E-1,2.340332121E-1,9.752182007E0,9.756074030E0
1.171487709E0,1.550245583E-1,2.196680009E-1,9.766547203E0,9.770247229E0
1.174007969E0,1.502361596E-1,2.244564146E-1,9.780912399E0,9.784640972E0
1.176528282E0,1.502361596E-1,2.436100245E-1,9.766547203E0,9.770740045E0
1.179048646E0,1.502361596E-1,2.483984232E-1,9.780912399E0,9.785219468E0
1.181569063E0,1.454477459E-1,2.483984232E-1,9.771335602E0,9.775574472E0
1.184089480E0,1.406593472E-1,2.436100245E-1,9.785700798E0,9.789743153E0
1.186609896E0,1.406593472E-1,2.292448133E-1,9.776124001E0,9.779823041E0
1.189129844E0,1.502361596E-1,2.388216257E-1,9.761758804E0,9.765835429E0
1.191649584E0,1.502361596E-1,2.053027898E-1,9.771335602E0,9.774646775E0
1.194169323E0,1.454477459E-1,2.100912035E-1,9.785700798E0,9.789036391E0
1.196689063E0,1.502361596E-1,2.100912035E-1,9.780912399E0,9.784321979E0
1.199208802E0,1.454477459E-1,2.100912035E-1,9.785700798E0,9.789036391E0
1.201728542E0,1.550245583E-1,2.053027898E-1,9.800065994E0,9.803442015E0
1.204248282E0,1.598129570E-1,2.100912035E-1,9.785700798E0,9.789260371E0
1.206768021E0,1.406593472E-1,2.148796022E-1,9.780912399E0,9.784283605E0
1.209287813E0,1.358709484E-1,2.053027898E-1,9.776124001E0,9.779223416E0
1.211807605E0,1.454477459E-1,2.100912035E-1,9.761758804E0,9.765102576E0
1.214327396E0,1.454477459E-1,1.957259923E-1,9.766547203E0,9.769590983E0
1.216847188E0,1.454477459E-1,1.909375787E-1,9.761758804E0,9.764709272E0
1.219366980E0,1.262941360E-1,1.909375787E-1,9.776124001E0,9.778804009E0
1.221886771E0,1.119289324E-1,1.861491799E-1,9.800065994E0,9.802472805E0
1.224406563E0,1.167173311E-1,1.813607812E-1,9.809642792E0,9.812013370E0
1.226926355E0,1.167173311E-1,1.717839688E-1,9.800065994E0,9.802266379E0
1.229446146E0,1.167173311E-1,1.717839688E-1,9.785700798E0,9.787904412E0
1.231965938E0,1.262941360E-1,1.574187577E-1,9.776124001E0,9.778206960E0
1.234485730E0,1.406593472E-1,1.526303589E-1,9.780912399E0,9.783114455E0
1.237005521E0,1.550245583E-1,1.622071713E-1,9.771335602E0,9.773911357E0
1.239525313E0,1.358709484E-1,1.622071713E-1,9.780912399E0,9.783200879E0
1.242045157E0,1.215057373E-1,1.717839688E-1,9.795277596E0,9.797537270E0
1.244565000E0,1.262941360E-1,1.717839688E-1,9.785700798E0,9.788023296E0
1.247084896E0,1.310825497E-1,1.717839688E-1,9.771335602E0,9.773724562E0
1.249604844E0,1.358709484E-1,1.622071713E-1,9.761758804E0,9.764051773E0
1.252124844E0,1.358709484E-1,1.622071713E-1,9.761758804E0,9.764051773E0
1.254644948E0,1.358709484E-1,1.717839688E-1,9.776124001E0,9.778577152E0
1.257165157E0,1.262941360E-1,1.622071713E-1,9.785700798E0,9.787859903E0
1.259685469E0,1.358709484E-1,1.574187577E-1,9.771335602E0,9.773548026E0
1.262205834E0,1.358709484E-1,1.622071713E-1,9.756970406E0,9.759264500E0
1.264726250E0,1.310825497E-1,1.622071713E-1,9.776124001E0,9.778348239E0
1.267246667E0,1.310825497E-1,1.765723825E-1,9.780912399E0,9.783384271E0
1.269767084E0,1.358709484E-1,1.574187577E-1,9.785700798E0,9.787909976E0
1.272287500E0,1.406593472E-1,1.478419602E-1,9.771335602E0,9.773466209E0
1.274807917E0,1.310825497E-1,1.526303589E-1,9.780912399E0,9.782981449E0
1.277327552E0,1.262941360E-1,1.622071713E-1,9.776124001E0,9.778285220E0
1.279847188E0,1.358709484E-1,1.622071713E-1,9.761758804E0,9.764051773E0
1.282366823E0,1.310825497E-1,1.669955701E-1,9.756970406E0,9.759279771E0
1.284886459E0,1.598129570E-1,1.669955701E-1,9.752182007E0,9.754920891E0
1.287406094E0,1.550245583E-1,1.669955701E-1,9.756970406E0,9.759630712E0
1.289925730E0,1.502361596E-1,1.861491799E-1,9.766547203E0,9.769476275E0
1.292445365E0,1.550245583E-1,1.957259923E-1,9.776124001E0,9.779311926E0
1.294965052E0,1.598129570E-1,1.861491799E-1,9.776124001E0,9.779202021E0
1.297484792E0,1.502361596E-1,1.717839688E-1,9.776124001E0,9.778787303E0
1.300004584E0,1.502361596E-1,1.669955701E-1,9.780912399E0,9.783491493E0
1.302524427E0,1.693897694E-1,1.765723825E-1,9.804854393E0,9.807907033E0
1.305044323E0,1.358709484E-1,1.717839688E-1,9.824007988E0,9.826449185E0
1.307564271E0,1.310825497E-1,1.765723825E-1,9.800065994E0,9.802533037E0
1.310084271E0,1.502361596E-1,1.669955701E-1,9.795277596E0,9.797852908E0
1.312604271E0,1.454477459E-1,1.861491799E-1,9.804854393E0,9.807699844E0
1.315124271E0,1.598129570E-1,1.861491799E-1,9.804854393E0,9.807923397E0
1.317644271E0,1.502361596E-1,1.957259923E-1,9.795277596E0,9.798384701E0
1.320164271E0,1.454477459E-1,1.957259923E-1,9.809642792E0,9.812673204E0
1.322684271E0,1.598129570E-1,1.861491799E-1,9.809642792E0,9.812710298E0
1.325204271E0,1.406593472E-1,2.100912035E-1,9.809642792E0,9.812900441E0
1.327724271E0,1.454477459E-1,2.340332121E-1,9.804854393E0,9.808725517E0
1.330244271E0,1.454477459E-1,2.196680009E-1,9.790489197E0,9.794033275E0
1.332764271E0,1.550245583E-1,2.244564146E-1,9.804854393E0,9.808648376E0
1.335284271E0,1.358709484E-1,2.244564146E-1,9.804854393E0,9.808364352E0
1.337804219E0,1.215057373E-1,2.292448133E-1,9.800065994E0,9.803499902E0
1.340324167E0,1.310825497E-1,2.292448133E-1,9.814431190E0,9.817983266E0
1.342844115E0,1.406593472E-1,2.196680009E-1,9.804854393E0,9.808323442E0
1.345364063E0,1.454477459E-1,2.100912035E-1,9.800065994E0,9.803396700E0
1.347884011E0,1.454477459E-1,2.100912035E-1,9.790489197E0,9.793823159E0
1.350403959E0,1.358709484E-1,2.148796022E-1,9.804854393E0,9.808149868E0
1.352923907E0,1.454477459E-1,2.196680009E-1,9.790489197E0,9.794033275E0
1.355443855E0,1.406593472E-1,2.244564146E-1,9.776124001E0,9.779711970E0
1.357963802E0,1.310825497E-1,2.292448133E-1,9.761758804E0,9.765330039E0
1.360483802E0,1.502361596E-1,2.196680009E-1,9.780912399E0,9.784532298E0
1.363003855E0,1.454477459E-1,2.244564146E-1,9.785700798E0,9.789355231E0
1.365523959E0,1.310825497E-1,2.148796022E-1,9.766547203E0,9.769790179E0
1.368044063E0,1.215057373E-1,2.244564146E-1,9.761758804E0,9.765094945E0
1.370564167E0,1.262941360E-1,2.148796022E-1,9.752182007E0,9.755366592E0
1.373084271E0,1.167173311E-1,2.196680009E-1,9.761758804E0,9.764927645E0
1.375604375E0,1.262941360E-1,2.148796022E-1,9.756970406E0,9.760153428E0
1.378124480E0,1.262941360E-1,2.005143911E-1,9.752182007E0,9.755060744E0
1.380644584E0,1.406593472E-1,2.053027898E-1,9.761758804E0,9.764930580E0
1.383164688E0,1.215057373E-1,2.053027898E-1,9.761758804E0,9.764673463E0
1.385684792E0,1.310825497E-1,1.909375787E-1,9.761758804E0,9.764505863E0
1.388204896E0,1.310825497E-1,1.909375787E-1,9.742605209E0,9.745357667E0
1.390725000E0,1.406593472E-1,1.765723825E-1,9.766547203E0,9.769155907E0
1.393245105E0,1.454477459E-1,1.765723825E-1,9.766547203E0,9.769226025E0
1.395764532E0,1.358709484E-1,1.957259923E-1,9.776124001E0,9.779027050E0
1.398283959E0,1.358709484E-1,1.909375787E-1,9.790489197E0,9.793293460E0
1.400803386E0,1.550245583E-1,2.100912035E-1,9.776124001E0,9.779609982E0
1.403322865E0,1.406593472E-1,1.765723825E-1,9.800065994E0,9.802665778E0
1.405842396E0,1.310825497E-1,1.526303589E-1,9.785700798E0,9.787768835E0
1.408361980E0,1.358709484E-1,1.574187577E-1,9.776124001E0,9.778335342E0
1.410881615E0,1.502361596E-1,1.669955701E-1,9.800065994E0,9.802640048E0
1.413401302E0,1.550245583E-1,1.622071713E-1,9.804854393E0,9.807421345E0
1.415921042E0,1.693897694E-1,1.478419602E-1,9.804854393E0,9.807431866E0
1.418440834E0,1.502361596E-1,1.334767491E-1,9.785700798E0,9.787764150E0
1.420960677E0,1.406593472E-1,1.526303589E-1,9.776124001E0,9.778327135E0
1.423480573E0,1.550245583E-1,1.334767491E-1,9.785700798E0,9.787838820E0
1.426000521E0,1.598129570E-1,1.382651478E-1,9.800065994E0,9.802344155E0
1.428520469E0,1.502361596E-1,1.430535465E-1,9.790489197E0,9.792686758E0
1.431040417E0,1.598129570E-1,1.382651478E-1,9.795277596E0,9.797556869E0
1.433560365E0,1.502361596E-1,1.430535465E-1,9.790489197E0,9.792686758E0
1.436080313E0,1.454477459E-1,1.574187577E-1,9.785700798E0,9.788047600E0
1.438600261E0,1.598129570E-1,1.669955701E-1,9.771335602E0,9.774069119E0
1.441120209E0,1.598129570E-1,1.574187577E-1,9.752182007E0,9.754761644E0
1.443640052E0,1.598129570E-1,1.717839688E-1,9.756970406E0,9.759791054E0
1.446159792E0,1.454477459E-1,1.669955701E-1,9.761758804E0,9.764270455E0
1.448679480E0,1.358709484E-1,1.669955701E-1,9.785700798E0,9.788068683E0
1.451199167E0,1.454477459E-1,1.765723825E-1,9.780912399E0,9.783587288E0
1.453718855E0,1.454477459E-1,1.669955701E-1,9.771335602E0,9.773844792E0
1.456238542E0,1.406593472E-1,1.622071713E-1,9.771335602E0,9.773694064E0
1.458758230E0,1.406593472E-1,1.526303589E-1,9.761758804E0,9.763965180E0
1.461277969E0,1.358709484E-1,1.622071713E-1,9.771335602E0,9.773626324E0
1.463797761E0,1.454477459E-1,1.669955701E-1,9.761758804E0,9.764270455E0
1.466317605E0,1.502361596E-1,1.765723825E-1,9.742605209E0,9.745363255E0
1.468837500E0,1.310825497E-1,1.909375787E-1,9.752182007E0,9.754931762E0
1.471357448E0,1.310825497E-1,1.765723825E-1,9.780912399E0,9.783384271E0
1.473877448E0,1.262941360E-1,2.100912035E-1,9.790489197E0,9.793557435E0
1.476397500E0,1.358709484E-1,2.100912035E-1,9.771335602E0,9.774538284E0
1.478917605E0,1.310825497E-1,2.005143911E-1,9.742605209E0,9.745550006E0
1.481437761E0,1.167173311E-1,2.100912035E-1,9.752182007E0,9.755143010E0
1.483957969E0,1.119289324E-1,2.053027898E-1,9.761758804E0,9.764558990E0
1.486478230E0,1.215057373E-1,2.148796022E-1,9.747393608E0,9.750518911E0
1.488998490E0,1.167173311E-1,2.292448133E-1,9.761758804E0,9.765147775E0
1.491518750E0,1.071405262E-1,2.244564146E-1,9.766547203E0,9.769713611E0
1.494039011E0,1.215057373E-1,2.100912035E-1,9.761758804E0,9.764775313E0
1.496559167E0,1.215057373E-1,2.340332121E-1,9.761758804E0,9.765319767E0
1.499078907E0,1.215057373E-1,2.196680009E-1,9.756970406E0,9.760199238E0
1.501598646E0,1.310825497E-1,2.196680009E-1,9.766547203E0,9.769896670E0
1.504118386E0,1.262941360E-1,2.196680009E-1,9.766547203E0,9.769833597E0
1.506638125E0,1.119289324E-1,2.340332121E-1,9.766547203E0,9.769992011E0
1.509157865E0,1.119289324E-1,2.196680009E-1,9.771335602E0,9.774445333E0
1.511677605E0,1.215057373E-1,2.196680009E-1,9.766547203E0,9.769772871E0
1.514197396E0,1.454477459E-1,2.388216257E-1,9.780912399E0,9.784908695E0
1.516717240E0,1.215057373E-1,2.436100245E-1,9.780912399E0,9.784700141E0
1.519237136E0,1.262941360E-1,2.579752207E-1,9.800065994E0,9.804274319E0
1.521757136E0,1.167173311E-1,2.340332121E-1,9.800065994E0,9.803554864E0
1.524277240E0,1.215057373E-1,2.148796022E-1,9.809642792E0,9.812748269E0
1.526797448E0,1.262941360E-1,2.340332121E-1,9.828796387E0,9.832393410E0
1.529317761E0,1.310825497E-1,2.244564146E-1,9.819219589E0,9.822659348E0
1.531838177E0,1.454477459E-1,2.148796022E-1,9.824007988E0,9.827434113E0
1.534358646E0,1.502361596E-1,2.196680009E-1,9.814431190E0,9.818038731E0
1.536879167E0,1.598129570E-1,2.244564146E-1,9.814431190E0,9.818298246E0
1.539399688E0,1.598129570E-1,2.148796022E-1,9.819219589E0,9.822870597E0
1.541920209E0,1.358709484E-1,2.148796022E-1,9.833584785E0,9.836870635E0
1.544440261E0,1.406593472E-1,2.244564146E-1,9.833584785E0,9.837151796E0
1.546960052E0,1.454477459E-1,2.053027898E-1,9.828796387E0,9.832016207E0
1.549479844E0,1.454477459E-1,2.196680009E-1,9.843161583E0,9.846686703E0
1.551999636E0,1.550245583E-1,2.196680009E-1,9.847949982E0,9.851619435E0
1.554519427E0,1.550245583E-1,2.196680009E-1,9.838373184E0,9.842046208E0
1.557038959E0,1.406593472E-1,2.148796022E-1,9.828796387E0,9.832151174E0
1.559558490E0,1.502361596E-1,2.148796022E-1,9.819219589E0,9.822719455E0
1.562078021E0,1.262941360E-1,2.053027898E-1,9.795277596E0,9.798242833E0
1.564597552E0,1.310825497E-1,1.909375787E-1,9.776124001E0,9.778867024E0
1.567117084E0,1.406593472E-1,1.861491799E-1,9.790489197E0,9.793268876E0
1.569636615E0,1.598129570E-1,1.765723825E-1,9.747393608E0,9.750302567E0
1.572156146E0,1.693897694E-1,1.574187577E-1,9.756970406E0,9.759710296E0
1.574675677E0,1.646013707E-1,1.717839688E-1,9.756970406E0,9.759870636E0
1.577195209E0,1.646013707E-1,1.622071713E-1,9.752182007E0,9.754919716E0
1.579714740E0,1.406593472E-1,1.478419602E-1,9.742605209E0,9.744742098E0
1.582234323E0,1.406593472E-1,1.430535465E-1,9.752182007E0,9.754245397E0
1.584753959E0,1.406593472E-1,1.526303589E-1,9.747393608E0,9.749603234E0
1.587273646E0,1.358709484E-1,1.574187577E-1,9.733028412E0,9.735249542E0
1.589793386E0,1.358709484E-1,1.622071713E-1,9.737816811E0,9.740115416E0
1.592313177E0,1.358709484E-1,1.526303589E-1,9.742605209E0,9.744747981E0
1.594832969E0,1.310825497E-1,1.478419602E-1,9.737816811E0,9.739821154E0
1.597352813E0,1.262941360E-1,1.717839688E-1,9.761758804E0,9.764086997E0
1.599872709E0,1.502361596E-1,1.765723825E-1,9.752182007E0,9.754937345E0
1.602392657E0,1.454477459E-1,1.574187577E-1,9.752182007E0,9.754536873E0
1.604912657E0,1.406593472E-1,1.478419602E-1,9.752182007E0,9.754316798E0
1.607432709E0,1.550245583E-1,1.430535465E-1,9.756970406E0,9.759250403E0
1.609952761E0,1.358709484E-1,1.286883354E-1,9.766547203E0,9.768339975E0
1.612472813E0,1.406593472E-1,1.334767491E-1,9.776124001E0,9.778046920E0
1.614992865E0,1.454477459E-1,1.478419602E-1,9.780912399E0,9.783110940E0
1.617512917E0,1.550245583E-1,1.526303589E-1,9.780912399E0,9.783331539E0
1.620032969E0,1.502361596E-1,1.478419602E-1,9.814431190E0,9.816694339E0
1.622552917E0,1.502361596E-1,1.334767491E-1,9.833584785E0,9.835638092E0
1.625072552E0,1.406593472E-1,1.382651478E-1,9.809642792E0,9.811625452E0
1.627592188E0,1.406593472E-1,1.526303589E-1,9.809642792E0,9.811838400E0
1.630111823E0,1.406593472E-1,1.574187577E-1,9.814431190E0,9.816701346E0
1.632631459E0,1.358709484E-1,1.669955701E-1,9.814431190E0,9.816792145E0
1.635151094E0,1.358709484E-1,1.909375787E-1,9.833584785E0,9.836376762E0
1.637670782E0,1.406593472E-1,1.909375787E-1,9.828796387E0,9.831657064E0
1.640190521E0,1.550245583E-1,1.765723825E-1,9.838373184E0,9.841178656E0
1.642710313E0,1.502361596E-1,1.861491799E-1,9.838373184E0,9.841280879E0
1.645230157E0,1.598129570E-1,1.861491799E-1,9.828796387E0,9.831857918E0
1.647750105E0,1.502361596E-1,1.813607812E-1,9.795277596E0,9.798108277E0
1.650270157E0,1.502361596E-1,1.813607812E-1,9.776124001E0,9.778960226E0
1.652790261E0,1.598129570E-1,1.765723825E-1,9.771335602E0,9.774237435E0
1.655310417E0,1.741781682E-1,2.005143911E-1,9.771335602E0,9.774944680E0
1.657830625E0,1.646013707E-1,2.100912035E-1,9.771335602E0,9.774979865E0
1.660350834E0,1.693897694E-1,2.244564146E-1,9.752182007E0,9.756235312E0
1.662871042E0,1.646013707E-1,2.148796022E-1,9.752182007E0,9.755937718E0
1.665391094E0,1.550245583E-1,2.100912035E-1,9.756970406E0,9.760463228E0
1.667910834E0,1.550245583E-1,2.292448133E-1,9.752182007E0,9.756107815E0
1.670430573E0,1.502361596E-1,2.244564146E-1,9.733028412E0,9.736775321E0
1.672950313E0,1.598129570E-1,2.196680009E-1,9.723451614E0,9.727245525E0
1.675470052E0,1.550245583E-1,2.148796022E-1,9.723451614E0,9.727061075E0
1.677989792E0,1.502361596E-1,2.436100245E-1,9.733028412E0,9.737235686E0
1.680509584E0,1.406593472E-1,2.244564146E-1,9.756970406E0,9.760565415E0
1.683029427E0,1.358709484E-1,2.292448133E-1,9.756970406E0,9.760608874E0
1.685549323E0,1.502361596E-1,2.244564146E-1,9.752182007E0,9.755921560E0
1.688069271E0,1.693897694E-1,2.388216257E-1,9.771335602E0,9.775721360E0
1.690589219E0,1.598129570E-1,2.148796022E-1,9.761758804E0,9.765431295E0
1.693109167E0,1.454477459E-1,2.292448133E-1,9.761758804E0,9.765533431E0
1.695629115E0,1.454477459E-1,2.292448133E-1,9.756970406E0,9.760746884E0
1.698149063E0,1.502361596E-1,2.340332121E-1,9.761758804E0,9.765719503E0
1.700669011E0,1.358709484E-1,2.436100245E-1,9.785700798E0,9.789675524E0
1.703188959E0,1.502361596E-1,2.340332121E-1,9.795277596E0,9.799224746E0
1.705708907E0,1.502361596E-1,2.100912035E-1,9.809642792E0,9.813042389E0
1.708228855E0,1.406593472E-1,2.148796022E-1,9.824007988E0,9.827364410E0
1.710748802E0,1.262941360E-1,2.148796022E-1,9.814431190E0,9.817595584E0
1.713268750E0,1.167173311E-1,2.196680009E-1,9.814431190E0,9.817583030E0
1.715788438E0,1.310825497E-1,2.148796022E-1,9.809642792E0,9.812871526E0
1.718308073E0,1.215057373E-1,2.100912035E-1,9.814431190E0,9.817431515E0
1.720827709E0,1.167173311E-1,2.196680009E-1,9.819219589E0,9.822369893E0
1.723347344E0,1.071405262E-1,2.196680009E-1,9.824007988E0,9.827047678E0
1.725866980E0,1.310825497E-1,2.100912035E-1,9.847949982E0,9.851062876E0
1.728386615E0,1.310825497E-1,2.100912035E-1,9.843161583E0,9.846275991E0
1.730906250E0,1.310825497E-1,1.813607812E-1,9.814431190E0,9.816981917E0
1.733425886E0,1.310825497E-1,1.909375787E-1,9.814431190E0,9.817163510E0
1.735945521E0,1.310825497E-1,2.005143911E-1,9.809642792E0,9.812567470E0
1.738465157E0,1.310825497E-1,1.861491799E-1,9.814431190E0,9.817071546E0
1.740984792E0,1.358709484E-1,1.765723825E-1,9.785700798E0,9.788236758E0
1.743504427E0,1.310825497E-1,1.765723825E-1,9.790489197E0,9.792958652E0
1.746024063E0,1.262941360E-1,1.717839688E-1,9.785700798E0,9.788023296E0
1.748543698E0,1.358709484E-1,1.717839688E-1,9.766547203E0,9.769002760E0
1.751063334E0,1.358709484E-1,1.861491799E-1,9.756970406E0,9.759691795E0
1.753582969E0,1.358709484E-1,1.909375787E-1,9.752182007E0,9.754997282E0
1.756102605E0,1.215057373E-1,1.861491799E-1,9.752182007E0,9.754715222E0
1.758622240E0,1.310825497E-1,2.005143911E-1,9.747393608E0,9.750336959E0
1.761141875E0,1.358709484E-1,1.813607812E-1,9.733028412E0,9.735666116E0
1.763661511E0,1.454477459E-1,1.957259923E-1,9.733028412E0,9.736082671E0
1.766181146E0,1.310825497E-1,2.005143911E-1,9.728240013E0,9.731189157E0
1.768700782E0,1.502361596E-1,2.005143911E-1,9.728240013E0,9.731466009E0
1.771220417E0,1.310825497E-1,1.957259923E-1,9.752182007E0,9.755026663E0
1.773740052E0,1.502361596E-1,1.765723825E-1,9.752182007E0,9.754937345E0
1.776259740E0,1.502361596E-1,1.622071713E-1,9.752182007E0,9.754687897E0
1.778779480E0,1.454477459E-1,1.669955701E-1,9.752182007E0,9.754696123E0
1.781299271E0,1.454477459E-1,1.622071713E-1,9.776124001E0,9.778551359E0
1.783819063E0,1.406593472E-1,1.717839688E-1,9.795277596E0,9.797793525E0
1.786338855E0,1.454477459E-1,1.669955701E-1,9.804854393E0,9.807355007E0
1.788858646E0,1.262941360E-1,1.813607812E-1,9.771335602E0,9.773834528E0
1.791378438E0,1.167173311E-1,1.813607812E-1,9.780912399E0,9.783289939E0
1.793898230E0,1.167173311E-1,1.957259923E-1,9.795277596E0,9.797928086E0
1.796418021E0,1.119289324E-1,2.100912035E-1,9.785700798E0,9.788595737E0
1.798937813E0,1.215057373E-1,2.196680009E-1,9.790489197E0,9.793706979E0
1.801457605E0,1.358709484E-1,2.148796022E-1,9.800065994E0,9.803363079E0
1.803977396E0,1.358709484E-1,2.244564146E-1,9.800065994E0,9.803577668E0
1.806497188E0,1.358709484E-1,2.100912035E-1,9.809642792E0,9.812832972E0
1.809016980E0,1.406593472E-1,1.957259923E-1,9.804854393E0,9.807816443E0
1.811536615E0,1.358709484E-1,1.765723825E-1,9.819219589E0,9.821746895E0
1.814056250E0,1.262941360E-1,1.909375787E-1,9.838373184E0,9.841036240E0
1.816575886E0,1.310825497E-1,1.765723825E-1,9.828796387E0,9.831256219E0
1.819095521E0,1.358709484E-1,1.622071713E-1,9.814431190E0,9.816711857E0
1.821615157E0,1.310825497E-1,1.909375787E-1,9.790489197E0,9.793228196E0
1.824134792E0,1.310825497E-1,2.053027898E-1,9.771335602E0,9.774371147E0
1.826654427E0,1.310825497E-1,2.100912035E-1,9.785700798E0,9.788833488E0
1.829174063E0,1.310825497E-1,2.148796022E-1,9.800065994E0,9.803297882E0
1.831693698E0,1.406593472E-1,1.957259923E-1,9.771335602E0,9.774307810E0
1.834213177E0,1.310825497E-1,2.148796022E-1,9.761758804E0,9.765003371E0
1.836732657E0,1.358709484E-1,2.148796022E-1,9.756970406E0,9.760282048E0
1.839252136E0,1.454477459E-1,2.196680009E-1,9.752182007E0,9.755740001E0
1.841771615E0,1.454477459E-1,2.244564146E-1,9.747393608E0,9.751062397E0
1.844291094E0,1.502361596E-1,1.957259923E-1,9.771335602E0,9.774450318E0
1.846810573E0,1.598129570E-1,1.909375787E-1,9.785700798E0,9.788868037E0
1.849330105E0,1.598129570E-1,1.669955701E-1,9.771335602E0,9.774069119E0
1.851849688E0,1.789665818E-1,1.765723825E-1,9.771335602E0,9.774569366E0
1.854369323E0,1.981201917E-1,1.813607812E-1,9.766547203E0,9.770239895E0
1.856889011E0,1.885433793E-1,1.861491799E-1,9.742605209E0,9.746207282E0
1.859408802E0,1.741781682E-1,2.005143911E-1,9.737816811E0,9.741438307E0
1.861928698E0,1.741781682E-1,2.005143911E-1,9.761758804E0,9.765371422E0
1.864448698E0,1.885433793E-1,2.148796022E-1,9.771335602E0,9.775516421E0
1.866968750E0,1.837549806E-1,2.053027898E-1,9.785700798E0,9.789578910E0
1.869488855E0,1.741781682E-1,2.053027898E-1,9.785700798E0,9.789403832E0
1.872008959E0,1.741781682E-1,2.100912035E-1,9.795277596E0,9.799078504E0
1.874529063E0,1.646013707E-1,1.861491799E-1,9.790489197E0,9.793642011E0
1.877049115E0,1.741781682E-1,1.717839688E-1,9.790489197E0,9.793545144E0
1.879569167E0,1.598129570E-1,1.765723825E-1,9.795277596E0,9.798172338E0
1.882088646E0,1.789665818E-1,1.622071713E-1,9.795277596E0,9.798255119E0
1.884608125E0,1.741781682E-1,1.478419602E-1,9.800065994E0,9.802728639E0
1.887127605E0,1.693897694E-1,1.574187577E-1,9.814431190E0,9.817155044E0
1.889647084E0,1.502361596E-1,1.478419602E-1,9.800065994E0,9.802332459E0
1.892166563E0,1.454477459E-1,1.478419602E-1,9.804854393E0,9.807047566E0
1.894686042E0,1.502361596E-1,1.526303589E-1,9.809642792E0,9.811980362E0
1.897205521E0,1.454477459E-1,1.382651478E-1,9.828796387E0,9.830844862E0
1.899725000E0,1.502361596E-1,1.574187577E-1,9.804854393E0,9.807268796E0
1.902244480E0,1.310825497E-1,1.622071713E-1,9.785700798E0,9.787922860E0
1.904763959E0,1.167173311E-1,1.574187577E-1,9.785700798E0,9.787662832E0
1.907283438E0,1.023521200E-1,1.574187577E-1,9.795277596E0,9.797077105E0
1.909802917E0,1.119289324E-1,1.765723825E-1,9.800065994E0,9.802295618E0
1.912322448E0,9.277531505E-2,1.813607812E-1,9.819219589E0,9.821332513E0
1.914842084E0,1.071405262E-1,1.622071713E-1,9.819219589E0,9.821143701E0
1.917361823E0,9.756372124E-2,1.574187577E-1,9.809642792E0,9.811390882E0
1.919881667E0,1.119289324E-1,1.478419602E-1,9.833584785E0,9.835332992E0
1.922401615E0,1.167173311E-1,1.286883354E-1,9.838373184E0,9.839907039E0
1.924921615E0,1.119289324E-1,1.238999367E-1,9.814431190E0,9.815851408E0
1.927441667E0,1.071405262E-1,1.334767491E-1,9.790489197E0,9.791985184E0
1.929961719E0,9.756372124E-2,1.382651478E-1,9.795277596E0,9.796739208E0
1.932481771E0,1.119289324E-1,1.526303589E-1,9.800065994E0,9.801893572E0
1.935001823E0,1.119289324E-1,1.622071713E-1,9.795277596E0,9.797259945E0
1.937521302E0,1.262941360E-1,1.765723825E-1,9.780912399E0,9.783321286E0
1.940040782E0,1.310825497E-1,1.717839688E-1,9.747393608E0,9.749788435E0
1.942560261E0,1.406593472E-1,1.813607812E-1,9.742605209E0,9.745308258E0
1.945079740E0,1.454477459E-1,1.765723825E-1,9.756970406E0,9.759651856E0
1.947599219E0,1.358709484E-1,1.765723825E-1,9.742605209E0,9.745152384E0
1.950118698E0,1.454477459E-1,1.669955701E-1,9.737816811E0,9.740334635E0
1.952638177E0,1.502361596E-1,1.622071713E-1,9.747393608E0,9.749900729E0
1.955157709E0,1.598129570E-1,1.526303589E-1,9.756970406E0,9.759472716E0
1.957677292E0,1.550245583E-1,1.765723825E-1,9.800065994E0,9.802882429E0
1.960196927E0,1.550245583E-1,1.622071713E-1,9.800065994E0,9.802634201E0
1.962716615E0,1.646013707E-1,1.622071713E-1,9.780912399E0,9.783642069E0
1.965236355E0,1.502361596E-1,1.669955701E-1,9.766547203E0,9.769130089E0
1.967756146E0,1.741781682E-1,1.669955701E-1,9.766547203E0,9.769527615E0
1.970275990E0,1.598129570E-1,1.861491799E-1,9.733028412E0,9.736120057E0
1.972795886E0,1.741781682E-1,1.909375787E-1,9.718663216E0,9.722099048E0
1.975315834E0,1.837549806E-1,2.053027898E-1,9.742605209E0,9.746500469E0
1.977835834E0,1.741781682E-1,2.005143911E-1,9.756970406E0,9.760584796E0
1.980355886E0,1.741781682E-1,1.957259923E-1,9.747393608E0,9.750914257E0
1.982875990E0,1.598129570E-1,1.957259923E-1,9.737816811E0,9.741094655E0
1.985396146E0,1.550245583E-1,1.909375787E-1,9.761758804E0,9.764856616E0
1.987916302E0,1.741781682E-1,1.957259923E-1,9.800065994E0,9.803567728E0
1.990436459E0,1.598129570E-1,1.765723825E-1,9.809642792E0,9.812533296E0
1.992956615E0,1.454477459E-1,1.765723825E-1,9.795277596E0,9.797948562E0
1.995476771E0,1.550245583E-1,1.957259923E-1,9.804854393E0,9.808032980E0
1.997996927E0,1.550245583E-1,2.005143911E-1,9.828796387E0,9.832063723E0
2.000517084E0,1.502361596E-1,1.861491799E-1,9.824007988E0,9.826919933E0
2.003037240E0,1.262941360E-1,1.957259923E-1,9.828796387E0,9.831556199E0
2.005557032E0,1.358709484E-1,2.100912035E-1,9.814431190E0,9.817619814E0
2.008076823E0,1.167173311E-1,2.148796022E-1,9.828796387E0,9.831837803E0
2.010596615E0,1.215057373E-1,2.244564146E-1,9.819219589E0,9.822536214E0
2.013116407E0,1.119289324E-1,2.244564146E-1,9.824007988E0,9.827209254E0
2.015636198E0,1.262941360E-1,2.196680009E-1,9.814431190E0,9.817701555E0
2.018155990E0,1.167173311E-1,2.244564146E-1,9.809642792E0,9.812904530E0
2.020675782E0,1.023521200E-1,2.005143911E-1,9.804854393E0,9.807438587E0
2.023195573E0,1.215057373E-1,2.053027898E-1,9.814431190E0,9.817330211E0
2.025715365E0,1.071405262E-1,2.244564146E-1,9.828796387E0,9.831942747E0
2.028235209E0,1.023521200E-1,2.053027898E-1,9.819219589E0,9.821898927E0
2.030755105E0,1.023521200E-1,2.005143911E-1,9.804854393E0,9.807438587E0
2.033275052E0,1.119289324E-1,1.909375787E-1,9.790489197E0,9.792990552E0
2.035795052E0,1.119289324E-1,1.957259923E-1,9.790489197E0,9.793085084E0
2.038315052E0,1.119289324E-1,2.053027898E-1,9.752182007E0,9.754984942E0
2.040835052E0,1.071405262E-1,2.053027898E-1,9.752182007E0,9.754931175E0
2.043354844E0,1.215057373E-1,2.196680009E-1,9.752182007E0,9.755412424E0
2.045874636E0,1.023521200E-1,2.196680009E-1,9.737816811E0,9.740831906E0
2.048394427E0,9.277531505E-2,2.292448133E-1,9.747393608E0,9.750530375E0
2.050914219E0,1.167173311E-1,2.148796022E-1,9.742605209E0,9.745673524E0
2.053434011E0,1.071405262E-1,2.340332121E-1,9.742605209E0,9.746004664E0
2.055953802E0,1.262941360E-1,2.292448133E-1,9.728240013E0,9.731760229E0
2.058473646E0,1.262941360E-1,2.196680009E-1,9.737816811E0,9.741112897E0
2.060993542E0,1.502361596E-1,2.053027898E-1,9.747393608E0,9.750712912E0
2.063513490E0,1.454477459E-1,2.196680009E-1,9.742605209E0,9.746166700E0
2.066033490E0,1.454477459E-1,2.196680009E-1,9.752182007E0,9.755740001E0
2.068553490E0,1.454477459E-1,1.861491799E-1,9.756970406E0,9.759829817E0
2.071073490E0,1.502361596E-1,1.957259923E-1,9.766547203E0,9.769663445E0
2.073593490E0,1.598129570E-1,2.053027898E-1,9.771335602E0,9.774798661E0
2.076113490E0,1.598129570E-1,2.148796022E-1,9.766547203E0,9.770217894E0
2.078633490E0,1.598129570E-1,2.100912035E-1,9.776124001E0,9.779687059E0
2.081153490E0,1.550245583E-1,2.100912035E-1,9.785700798E0,9.789183369E0
2.083673386E0,1.693897694E-1,2.196680009E-1,9.790489197E0,9.794418086E0
2.086193177E0,1.646013707E-1,2.196680009E-1,9.785700798E0,9.789549926E0
2.088712657E0,1.741781682E-1,2.148796022E-1,9.804854393E0,9.808755321E0
2.091232136E0,1.741781682E-1,2.053027898E-1,9.809642792E0,9.813336791E0
2.093751615E0,1.741781682E-1,1.909375787E-1,9.819219589E0,9.822620248E0
2.096271146E0,1.741781682E-1,1.957259923E-1,9.833584785E0,9.837074587E0
2.098790730E0,1.741781682E-1,2.005143911E-1,9.843161583E0,9.846744335E0
2.101310365E0,1.646013707E-1,1.813607812E-1,9.824007988E0,9.827060511E0
2.103830105E0,1.550245583E-1,1.765723825E-1,9.819219589E0,9.822030531E0
2.106349896E0,1.646013707E-1,1.861491799E-1,9.819219589E0,9.822363182E0
2.108869740E0,1.646013707E-1,1.717839688E-1,9.819219589E0,9.822101439E0
2.111389636E0,1.646013707E-1,1.622071713E-1,9.824007988E0,9.826725687E0
2.113909584E0,1.502361596E-1,1.861491799E-1,9.804854393E0,9.807772025E0
2.116429584E0,1.502361596E-1,1.717839688E-1,9.824007988E0,9.826658312E0
2.118949584E0,1.502361596E-1,1.622071713E-1,9.819219589E0,9.821708375E0
2.121469584E0,1.502361596E-1,1.622071713E-1,9.804854393E0,9.807346825E0
2.123989323E0,1.310825497E-1,1.574187577E-1,9.800065994E0,9.802206731E0
2.126508959E0,1.358709484E-1,1.478419602E-1,9.795277596E0,9.797335420E0
2.129028542E0,1.358709484E-1,1.478419602E-1,9.795277596E0,9.797335420E0
2.131548125E0,1.215057373E-1,1.430535465E-1,9.766547203E0,9.768350538E0
2.134067709E0,1.119289324E-1,1.382651478E-1,9.752182007E0,9.753804347E0
2.136587292E0,1.119289324E-1,1.478419602E-1,9.761758804E0,9.763519872E0
2.139106875E0,1.215057373E-1,1.526303589E-1,9.771335602E0,9.773282924E0
2.141626459E0,1.071405262E-1,1.622071713E-1,9.776124001E0,9.778056593E0
2.144146094E0,1.071405262E-1,1.526303589E-1,9.771335602E0,9.773114885E0
2.146665782E0,1.119289324E-1,1.478419602E-1,9.771335602E0,9.773094943E0
2.149185469E0,1.023521200E-1,1.574187577E-1,9.766547203E0,9.768352005E0
2.151705157E0,1.215057373E-1,1.717839688E-1,9.752182007E0,9.754451664E0
2.154224844E0,1.262941360E-1,1.717839688E-1,9.747393608E0,9.749725232E0
2.156744532E0,1.167173311E-1,1.717839688E-1,9.761758804E0,9.763967822E0
2.159264219E0,1.119289324E-1,1.574187577E-1,9.761758804E0,9.763669582E0
2.161783907E0,1.071405262E-1,1.622071713E-1,9.752182007E0,9.754119343E0
2.164303594E0,1.167173311E-1,1.574187577E-1,9.776124001E0,9.778087956E0
2.166823334E0,1.262941360E-1,1.622071713E-1,9.790489197E0,9.792647246E0
2.169343125E0,1.406593472E-1,1.622071713E-1,9.785700798E0,9.788055799E0
2.171862969E0,1.502361596E-1,1.861491799E-1,9.785700798E0,9.788624139E0
2.174382865E0,1.406593472E-1,1.622071713E-1,9.800065994E0,9.802417544E0
2.176902813E0,1.502361596E-1,1.717839688E-1,9.780912399E0,9.783574398E0
2.179422813E0,1.550245583E-1,1.909375787E-1,9.785700798E0,9.788791033E0
2.181942865E0,1.502361596E-1,2.053027898E-1,9.790489197E0,9.793793895E0
2.184462917E0,1.550245583E-1,2.005143911E-1,9.795277596E0,9.798556108E0
2.186982969E0,1.502361596E-1,2.148796022E-1,9.804854393E0,9.808359384E0
2.189502865E0,1.646013707E-1,2.148796022E-1,9.790489197E0,9.794230218E0
2.192022448E0,1.646013707E-1,2.053027898E-1,9.800065994E0,9.803598132E0
2.194541980E0,1.454477459E-1,1.957259923E-1,9.819219589E0,9.822247047E0
2.197061302E0,1.502361596E-1,1.861491799E-1,9.833584785E0,9.836493895E0
2.199580625E0,1.550245583E-1,1.909375787E-1,9.824007988E0,9.827086177E0
2.202099948E0,1.598129570E-1,1.957259923E-1,9.833584785E0,9.836830718E0
2.204619271E0,1.598129570E-1,1.957259923E-1,9.809642792E0,9.812896644E0
2.207138594E0,1.550245583E-1,1.861491799E-1,9.804854393E0,9.807846542E0
2.209657969E0,1.741781682E-1,1.957259923E-1,9.824007988E0,9.827501190E0
2.212177396E0,1.646013707E-1,2.100912035E-1,9.843161583E0,9.846779264E0
2.214696875E0,1.598129570E-1,2.053027898E-1,9.824007988E0,9.827452486E0
2.217216459E0,1.502361596E-1,1.957259923E-1,9.828796387E0,9.831892899E0
2.219736094E0,1.502361596E-1,2.005143911E-1,9.800065994E0,9.803268354E0
2.222255834E0,1.598129570E-1,2.053027898E-1,9.790489197E0,9.793945483E0
2.224775625E0,1.454477459E-1,2.053027898E-1,9.780912399E0,9.784147977E0
2.227295469E0,1.358709484E-1,2.100912035E-1,9.766547203E0,9.769751455E0
2.229815365E0,1.502361596E-1,1.909375787E-1,9.780912399E0,9.783929447E0
2.232335313E0,1.454477459E-1,1.765723825E-1,9.785700798E0,9.788374378E0
2.234855261E0,1.454477459E-1,1.813607812E-1,9.761758804E0,9.764526703E0
2.237375209E0,1.454477459E-1,1.717839688E-1,9.771335602E0,9.773927779E0
2.239895157E0,1.262941360E-1,1.813607812E-1,9.780912399E0,9.783408880E0
2.242415105E0,1.406593472E-1,1.813607812E-1,9.776124001E0,9.778817784E0
2.244935052E0,1.358709484E-1,1.813607812E-1,9.752182007E0,9.754814531E0
2.247455000E0,1.358709484E-1,1.765723825E-1,9.747393608E0,9.749939532E0
2.249974948E0,1.310825497E-1,1.765723825E-1,9.747393608E0,9.749873978E0
2.252494896E0,1.262941360E-1,1.669955701E-1,9.766547203E0,9.768791225E0
2.255014323E0,1.167173311E-1,1.861491799E-1,9.761758804E0,9.764231122E0
2.257533750E0,1.167173311E-1,1.813607812E-1,9.776124001E0,9.778502705E0
2.260053177E0,1.071405262E-1,1.813607812E-1,9.766547203E0,9.768818511E0
2.262572657E0,1.167173311E-1,1.861491799E-1,9.771335602E0,9.773805497E0
2.265092188E0,1.167173311E-1,1.813607812E-1,9.771335602E0,9.773715471E0
2.267611771E0,1.215057373E-1,1.813607812E-1,9.771335602E0,9.773773827E0
2.270131459E0,1.167173311E-1,1.622071713E-1,9.756970406E0,9.759016631E0
2.272651198E0,1.215057373E-1,1.526303589E-1,9.761758804E0,9.763708037E0
2.275170990E0,1.310825497E-1,1.526303589E-1,9.780912399E0,9.782981449E0
2.277690834E0,1.262941360E-1,1.526303589E-1,9.776124001E0,9.778131044E0
2.280210730E0,1.215057373E-1,1.574187577E-1,9.790489197E0,9.792508515E0
2.282730677E0,1.406593472E-1,1.669955701E-1,9.795277596E0,9.797710740E0
2.285250625E0,1.358709484E-1,1.717839688E-1,9.776124001E0,9.778577152E0
2.287770573E0,1.454477459E-1,1.622071713E-1,9.785700798E0,9.788125782E0
2.290290521E0,1.502361596E-1,1.717839688E-1,9.795277596E0,9.797935691E0
2.292810469E0,1.406593472E-1,1.861491799E-1,9.790489197E0,9.793268876E0
2.295330417E0,1.262941360E-1,1.861491799E-1,9.790489197E0,9.793073084E0
2.297850365E0,1.310825497E-1,2.053027898E-1,9.795277596E0,9.798305723E0
2.300370313E0,1.454477459E-1,2.053027898E-1,9.809642792E0,9.812868897E0
2.302890105E0,1.550245583E-1,1.957259923E-1,9.814431190E0,9.817606677E0
2.305409688E0,1.550245583E-1,2.005143911E-1,9.795277596E0,9.798556108E0
2.307929271E0,1.454477459E-1,1.957259923E-1,9.790489197E0,9.793525536E0
2.310448802E0,1.454477459E-1,1.957259923E-1,9.800065994E0,9.803099367E0
2.312968230E0,1.406593472E-1,1.765723825E-1,9.824007988E0,9.826601437E0
2.315487657E0,1.310825497E-1,1.909375787E-1,9.809642792E0,9.812376445E0
2.318007084E0,1.598129570E-1,2.053027898E-1,9.790489197E0,9.793945483E0
2.320526459E0,1.502361596E-1,2.100912035E-1,9.790489197E0,9.793895442E0
2.323045834E0,1.358709484E-1,2.196680009E-1,9.800065994E0,9.803469204E0
2.325565209E0,1.310825497E-1,2.196680009E-1,9.790489197E0,9.793830475E0
2.328084636E0,1.598129570E-1,2.053027898E-1,9.795277596E0,9.798732193E0
2.330604115E0,1.550245583E-1,2.053027898E-1,9.776124001E0,9.779508286E0
2.333123646E0,1.310825497E-1,2.244564146E-1,9.780912399E0,9.784365625E0
2.335643230E0,1.358709484E-1,2.292448133E-1,9.785700798E0,9.789328588E0
2.338162865E0,1.358709484E-1,2.196680009E-1,9.776124001E0,9.779535542E0
2.340682552E0,1.550245583E-1,2.244564146E-1,9.795277596E0,9.799075286E0
2.343202240E0,1.406593472E-1,2.196680009E-1,9.800065994E0,9.803536738E0
2.345721927E0,1.454477459E-1,2.196680009E-1,9.809642792E0,9.813179952E0
2.348241615E0,1.550245583E-1,2.148796022E-1,9.809642792E0,9.813220550E0
2.350761302E0,1.358709484E-1,2.244564146E-1,9.824007988E0,9.827511106E0
2.353281042E0,1.406593472E-1,2.340332121E-1,9.804854393E0,9.808655681E0
2.355800782E0,1.406593472E-1,2.388216257E-1,9.795277596E0,9.799198130E0
2.358320573E0,1.502361596E-1,2.340332121E-1,9.776124001E0,9.780078881E0
2.360840365E0,1.406593472E-1,2.436100245E-1,9.776124001E0,9.780170314E0
2.363360157E0,1.502361596E-1,2.388216257E-1,9.776124001E0,9.780194637E0
2.365879948E0,1.550245583E-1,2.436100245E-1,9.771335602E0,9.775601153E0
2.368399740E0,1.550245583E-1,2.388216257E-1,9.776124001E0,9.780269365E0
2.370919427E0,1.454477459E-1,2.483984232E-1,9.785700798E0,9.789933449E0
2.373438750E0,1.262941360E-1,2.340332121E-1,9.804854393E0,9.808460196E0
2.375958073E0,1.310825497E-1,2.340332121E-1,9.800065994E0,9.803736414E0
2.378477396E0,1.262941360E-1,2.292448133E-1,9.780912399E0,9.784413664E0
2.380996719E0,1.310825497E-1,2.244564146E-1,9.776124001E0,9.779578917E0
2.383516042E0,1.358709484E-1,2.340332121E-1,9.785700798E0,9.789441893E0
2.386035365E0,1.358709484E-1,2.340332121E-1,9.790489197E0,9.794228462E0
2.388554688E0,1.262941360E-1,2.196680009E-1,9.800065994E0,9.803341151E0
2.391074063E0,1.215057373E-1,2.292448133E-1,9.804854393E0,9.808286624E0
2.393593490E0,1.167173311E-1,2.244564146E-1,9.790489197E0,9.793757314E0
2.396112969E0,1.215057373E-1,2.100912035E-1,9.785700798E0,9.788709929E0
2.398632500E0,1.023521200E-1,2.053027898E-1,9.776124001E0,9.778815146E0
2.401152084E0,1.119289324E-1,2.053027898E-1,9.771335602E0,9.774133044E0
2.403671719E0,1.262941360E-1,1.957259923E-1,9.761758804E0,9.764537563E0
2.406191407E0,1.358709484E-1,1.957259923E-1,9.780912399E0,9.783814028E0
2.408711146E0,1.310825497E-1,2.005143911E-1,9.766547203E0,9.769484783E0
2.411230938E0,1.119289324E-1,1.861491799E-1,9.756970406E0,9.759387844E0
2.413750782E0,1.215057373E-1,1.813607812E-1,9.752182007E0,9.754625020E0
2.416270677E0,1.262941360E-1,1.813607812E-1,9.771335602E0,9.773834528E0
2.418790625E0,1.310825497E-1,1.813607812E-1,9.766547203E0,9.769110432E0
2.421310625E0,1.167173311E-1,1.574187577E-1,9.776124001E0,9.778087956E0
2.423830625E0,1.215057373E-1,1.669955701E-1,9.771335602E0,9.773517822E0
2.426350625E0,1.215057373E-1,1.669955701E-1,9.780912399E0,9.783092483E0
2.428870313E0,1.310825497E-1,1.526303589E-1,9.761758804E0,9.763831912E0
2.431389688E0,1.454477459E-1,1.526303589E-1,9.747393608E0,9.749673493E0
2.433909063E0,1.406593472E-1,1.574187577E-1,9.771335602E0,9.773615767E0
2.436428438E0,1.358709484E-1,1.669955701E-1,9.790489197E0,9.792855924E0
2.438947813E0,1.406593472E-1,1.669955701E-1,9.809642792E0,9.812072374E0
2.441467188E0,1.502361596E-1,1.717839688E-1,9.814431190E0,9.817084100E0
2.443986563E0,1.454477459E-1,1.622071713E-1,9.800065994E0,9.802487424E0
2.446505990E0,1.358709484E-1,1.765723825E-1,9.814431190E0,9.816959729E0
2.449025469E0,1.550245583E-1,1.717839688E-1,9.785700798E0,9.788436160E0
2.451545000E0,1.598129570E-1,1.765723825E-1,9.795277596E0,9.798172338E0
2.454064584E0,1.502361596E-1,1.622071713E-1,9.800065994E0,9.802559643E0
2.456584219E0,1.693897694E-1,1.574187577E-1,9.771335602E0,9.774071465E0
2.459103959E0,1.789665818E-1,1.669955701E-1,9.780912399E0,9.783974853E0
2.461623802E0,1.646013707E-1,1.622071713E-1,9.785700798E0,9.788429133E0
2.464143750E0,1.741781682E-1,1.574187577E-1,9.785700798E0,9.788516681E0
2.466663802E0,1.598129570E-1,1.286883354E-1,9.804854393E0,9.807001098E0
2.469183959E0,1.646013707E-1,1.430535465E-1,9.814431190E0,9.816853749E0
2.471704219E0,1.598129570E-1,1.430535465E-1,9.814431190E0,9.816774628E0
2.474224584E0,1.598129570E-1,1.478419602E-1,9.804854393E0,9.807271134E0
2.476745052E0,1.550245583E-1,1.669955701E-1,9.785700798E0,9.788353296E0
2.479265625E0,1.598129570E-1,1.669955701E-1,9.780912399E0,9.783643241E0
2.481786250E0,1.598129570E-1,1.765723825E-1,9.800065994E0,9.802959323E0
2.484306927E0,1.502361596E-1,1.574187577E-1,9.804854393E0,9.807268796E0
2.486827657E0,1.406593472E-1,1.669955701E-1,9.809642792E0,9.812072374E0
2.489348386E0,1.454477459E-1,1.717839688E-1,9.800065994E0,9.802650574E0
2.491869063E0,1.502361596E-1,1.765723825E-1,9.800065994E0,9.802807873E0
2.494389688E0,1.454477459E-1,1.717839688E-1,9.785700798E0,9.788289171E0
2.496909740E0,1.502361596E-1,1.813607812E-1,9.785700798E0,9.788534249E0
2.499429480E0,1.502361596E-1,1.717839688E-1,9.790489197E0,9.793148592E0
2.501949219E0,1.406593472E-1,1.574187577E-1,9.795277596E0,9.797552189E0
2.504468959E0,1.406593472E-1,1.478419602E-1,9.814431190E0,9.816552444E0
2.506988698E0,1.215057373E-1,1.622071713E-1,9.804854393E0,9.806948785E0
2.509508438E0,1.406593472E-1,1.574187577E-1,9.785700798E0,9.787977617E0
2.512028177E0,1.358709484E-1,1.669955701E-1,9.795277596E0,9.797643166E0
2.514547917E0,1.310825497E-1,1.765723825E-1,9.780912399E0,9.783384271E0
2.517067657E0,1.310825497E-1,1.669955701E-1,9.780912399E0,9.783216113E0
2.519587448E0,1.358709484E-1,1.765723825E-1,9.785700798E0,9.788236758E0
2.522107292E0,1.071405262E-1,1.813607812E-1,9.804854393E0,9.807116829E0
2.524627188E0,1.023521200E-1,1.861491799E-1,9.771335602E0,9.773644505E0
2.527147136E0,1.167173311E-1,1.813607812E-1,9.756970406E0,9.759353778E0
2.529667136E0,1.262941360E-1,1.909375787E-1,9.790489197E0,9.793165274E0
2.532187188E0,1.167173311E-1,1.813607812E-1,9.828796387E0,9.831162346E0
2.534707292E0,1.215057373E-1,1.765723825E-1,9.809642792E0,9.811984160E0
2.537227448E0,1.262941360E-1,1.622071713E-1,9.785700798E0,9.787859903E0
2.539747657E0,1.262941360E-1,1.669955701E-1,9.776124001E0,9.778365825E0
2.542267865E0,1.406593472E-1,1.622071713E-1,9.752182007E0,9.754545100E0
2.544788073E0,1.454477459E-1,1.717839688E-1,9.728240013E0,9.730843670E0
2.547308282E0,1.406593472E-1,1.765723825E-1,9.728240013E0,9.730858986E0
2.549828490E0,1.310825497E-1,1.717839688E-1,9.756970406E0,9.759362882E0
2.552348177E0,1.358709484E-1,1.622071713E-1,9.766547203E0,9.768839048E0
2.554867865E0,1.310825497E-1,1.909375787E-1,9.752182007E0,9.754931762E0
2.557387552E0,1.262941360E-1,2.053027898E-1,9.752182007E0,9.755160344E0
2.559907240E0,1.119289324E-1,1.861491799E-1,9.761758804E0,9.764175058E0
2.562426927E0,1.406593472E-1,1.669955701E-1,9.771335602E0,9.773774707E0
2.564946615E0,1.310825497E-1,1.717839688E-1,9.790489197E0,9.792873484E0
2.567466302E0,1.358709484E-1,1.574187577E-1,9.790489197E0,9.792697294E0
2.569985990E0,1.358709484E-1,1.622071713E-1,9.828796387E0,9.831073720E0
2.572505730E0,1.406593472E-1,1.669955701E-1,9.824007988E0,9.826434019E0
2.575025521E0,1.406593472E-1,1.813607812E-1,9.809642792E0,9.812327374E0
2.577545365E0,1.454477459E-1,1.861491799E-1,9.809642792E0,9.812486854E0
2.580065261E0,1.406593472E-1,1.765723825E-1,9.800065994E0,9.802665778E0
2.582585209E0,1.358709484E-1,1.765723825E-1,9.790489197E0,9.793023917E0
2.585105209E0,1.454477459E-1,1.909375787E-1,9.795277596E0,9.798217970E0
2.587625209E0,1.406593472E-1,1.765723825E-1,9.800065994E0,9.802665778E0
2.590145209E0,1.646013707E-1,1.765723825E-1,9.790489197E0,9.793464664E0
2.592665209E0,1.598129570E-1,1.813607812E-1,9.780912399E0,9.783898981E0
2.595185209E0,1.454477459E-1,1.717839688E-1,9.766547203E0,9.769140650E0
2.597705157E0,1.502361596E-1,1.813607812E-1,9.771335602E0,9.774173217E0
2.600225052E0,1.454477459E-1,1.861491799E-1,9.800065994E0,9.802912835E0
2.602744844E0,1.598129570E-1,1.717839688E-1,9.795277596E0,9.798087216E0
2.605264636E0,1.550245583E-1,1.717839688E-1,9.804854393E0,9.807584413E0
2.607784219E0,1.550245583E-1,1.813607812E-1,9.804854393E0,9.807756829E0
2.610303802E0,1.598129570E-1,1.765723825E-1,9.790489197E0,9.793385354E0
2.612823386E0,1.502361596E-1,1.813607812E-1,9.780912399E0,9.783747237E0
2.615343021E0,1.502361596E-1,1.813607812E-1,9.800065994E0,9.802895293E0
2.617862709E0,1.406593472E-1,2.005143911E-1,9.800065994E0,9.803126265E0
2.620382500E0,1.454477459E-1,1.909375787E-1,9.790489197E0,9.793431008E0
2.622902396E0,1.454477459E-1,1.813607812E-1,9.766547203E0,9.769313745E0
2.625422396E0,1.358709484E-1,2.005143911E-1,9.752182007E0,9.755189431E0
2.627942500E0,1.406593472E-1,1.765723825E-1,9.752182007E0,9.754794552E0
2.630462709E0,1.502361596E-1,1.765723825E-1,9.771335602E0,9.774085541E0
2.632983021E0,1.741781682E-1,1.861491799E-1,9.776124001E0,9.779447327E0
2.635503386E0,1.598129570E-1,2.053027898E-1,9.771335602E0,9.774798661E0
2.638023802E0,1.550245583E-1,1.717839688E-1,9.766547203E0,9.769287928E0
2.640544219E0,1.454477459E-1,1.957259923E-1,9.761758804E0,9.764804077E0
2.643064480E0,1.310825497E-1,1.957259923E-1,9.761758804E0,9.764600670E0
2.645584375E0,1.598129570E-1,1.813607812E-1,9.785700798E0,9.788685919E0
2.648104271E0,1.454477459E-1,1.861491799E-1,9.780912399E0,9.783764814E0
2.650624115E0,1.310825497E-1,1.909375787E-1,9.776124001E0,9.778867024E0
2.653143959E0,1.262941360E-1,1.909375787E-1,9.785700798E0,9.788378184E0
2.655663802E0,1.310825497E-1,1.909375787E-1,9.800065994E0,9.802802318E0
2.658183594E0,1.454477459E-1,2.053027898E-1,9.804854393E0,9.808082073E0
2.660703230E0,1.358709484E-1,2.196680009E-1,9.809642792E0,9.813042680E0
2.663222865E0,1.406593472E-1,2.148796022E-1,9.790489197E0,9.793857106E0
2.665742500E0,1.310825497E-1,2.196680009E-1,9.800065994E0,9.803404009E0
2.668262136E0,1.310825497E-1,2.100912035E-1,9.843161583E0,9.846275991E0
2.670781771E0,1.215057373E-1,2.053027898E-1,9.852738380E0,9.855626133E0
2.673301407E0,1.167173311E-1,2.005143911E-1,9.804854393E0,9.807599024E0
2.675821042E0,1.215057373E-1,2.100912035E-1,9.804854393E0,9.807857647E0
2.678340677E0,1.310825497E-1,2.196680009E-1,9.790489197E0,9.793830475E0
2.680860313E0,1.406593472E-1,2.148796022E-1,9.771335602E0,9.774710110E0
2.683379948E0,1.358709484E-1,2.340332121E-1,9.771335602E0,9.775082194E0
2.685899636E0,1.550245583E-1,2.340332121E-1,9.766547203E0,9.770580762E0
2.688419375E0,1.310825497E-1,2.196680009E-1,9.809642792E0,9.812977548E0
2.690939167E0,1.262941360E-1,2.053027898E-1,9.809642792E0,9.812603688E0
2.693459011E0,1.071405262E-1,2.244564146E-1,9.790489197E0,9.793647864E0
2.695978907E0,1.358709484E-1,2.100912035E-1,9.766547203E0,9.769751455E0
2.698498855E0,1.358709484E-1,2.148796022E-1,9.776124001E0,9.779429157E0
2.701018855E0,1.310825497E-1,2.148796022E-1,9.790489197E0,9.793724245E0
2.703538959E0,1.358709484E-1,2.196680009E-1,9.780912399E0,9.784322271E0
2.706059115E0,1.550245583E-1,2.292448133E-1,9.795277596E0,9.799186138E0
2.708579323E0,1.454477459E-1,2.244564146E-1,9.838373184E0,9.842008059E0
2.711099584E0,1.262941360E-1,2.148796022E-1,9.857526779E0,9.860677343E0
2.713619844E0,1.406593472E-1,2.340332121E-1,9.785700798E0,9.789509523E0
2.716140105E0,1.406593472E-1,2.340332121E-1,9.761758804E0,9.765576867E0
2.718660365E0,1.310825497E-1,2.292448133E-1,9.756970406E0,9.760543392E0
2.721180625E0,1.454477459E-1,2.244564146E-1,9.737816811E0,9.741489207E0
2.723700886E0,1.693897694E-1,2.340332121E-1,9.733028412E0,9.737315159E0
2.726220886E0,1.741781682E-1,2.388216257E-1,9.756970406E0,9.761446886E0
2.728740834E0,1.550245583E-1,2.436100245E-1,9.771335602E0,9.775601153E0
2.731260782E0,1.502361596E-1,2.340332121E-1,9.752182007E0,9.756146593E0
2.733780730E0,1.454477459E-1,2.244564146E-1,9.728240013E0,9.731916023E0
2.736300677E0,1.406593472E-1,2.148796022E-1,9.780912399E0,9.784283605E0
2.738820625E0,1.215057373E-1,1.909375787E-1,9.785700798E0,9.788317573E0
2.741340573E0,1.502361596E-1,1.909375787E-1,9.785700798E0,9.788716370E0
2.743860521E0,1.454477459E-1,1.957259923E-1,9.804854393E0,9.807886285E0
2.746380469E0,1.454477459E-1,2.005143911E-1,9.824007988E0,9.827130508E0
2.748900417E0,1.310825497E-1,2.244564146E-1,9.833584785E0,9.837019521E0
2.751420365E0,1.262941360E-1,2.244564146E-1,9.814431190E0,9.817809862E0
2.753940313E0,1.310825497E-1,2.244564146E-1,9.809642792E0,9.813085907E0
2.756460261E0,1.262941360E-1,2.244564146E-1,9.814431190E0,9.817809862E0
2.758980000E0,9.756372124E-2,2.148796022E-1,9.795277596E0,9.798119978E0
2.761499584E0,1.119289324E-1,2.100912035E-1,9.785700798E0,9.788595737E0
2.764019167E0,1.262941360E-1,2.100912035E-1,9.785700798E0,9.788770537E0
2.766538750E0,1.215057373E-1,2.148796022E-1,9.785700798E0,9.788813871E0
2.769058386E0,1.358709484E-1,2.100912035E-1,9.800065994E0,9.803259291E0
2.771578073E0,1.406593472E-1,2.005143911E-1,9.800065994E0,9.803126265E0
2.774097813E0,1.454477459E-1,2.005143911E-1,9.804854393E0,9.807983011E0
2.776617605E0,1.454477459E-1,1.765723825E-1,9.790489197E0,9.793161469E0
2.779137448E0,1.502361596E-1,1.622071713E-1,9.800065994E0,9.802559643E0
2.781657344E0,1.454477459E-1,1.574187577E-1,9.795277596E0,9.797622104E0
2.784177344E0,1.310825497E-1,1.526303589E-1,9.800065994E0,9.802131001E0
2.786697396E0,1.406593472E-1,1.669955701E-1,9.800065994E0,9.802497950E0
2.789217500E0,1.502361596E-1,1.717839688E-1,9.804854393E0,9.807509893E0
2.791737657E0,1.310825497E-1,1.909375787E-1,9.809642792E0,9.812376445E0
2.794257813E0,1.310825497E-1,1.861491799E-1,9.790489197E0,9.793136008E0
2.796778021E0,1.358709484E-1,2.053027898E-1,9.780912399E0,9.784010298E0
2.799298282E0,1.310825497E-1,2.053027898E-1,9.780912399E0,9.783944973E0
2.801818542E0,1.406593472E-1,1.765723825E-1,9.766547203E0,9.769155907E0
2.804338802E0,1.406593472E-1,1.717839688E-1,9.747393608E0,9.749921894E0
2.806859063E0,1.454477459E-1,1.478419602E-1,9.766547203E0,9.768748976E0
2.809378907E0,1.406593472E-1,1.430535465E-1,9.776124001E0,9.778182338E0
2.811898750E0,1.598129570E-1,1.382651478E-1,9.800065994E0,9.802344155E0
2.814418594E0,1.646013707E-1,1.382651478E-1,9.800065994E0,9.802423392E0
2.816938438E0,1.598129570E-1,1.095347255E-1,9.795277596E0,9.797193537E0
2.819458282E0,1.502361596E-1,1.334767491E-1,9.780912399E0,9.782976761E0
2.821978125E0,1.550245583E-1,1.382651478E-1,9.761758804E0,9.763968702E0
2.824497969E0,1.598129570E-1,1.526303589E-1,9.752182007E0,9.754685546E0
2.827017865E0,1.598129570E-1,1.478419602E-1,9.761758804E0,9.764186212E0
2.829537813E0,1.598129570E-1,1.478419602E-1,9.785700798E0,9.788122268E0
2.832057813E0,1.598129570E-1,1.526303589E-1,9.800065994E0,9.802557304E0
2.834577865E0,1.406593472E-1,1.526303589E-1,9.809642792E0,9.811838400E0
2.837097969E0,1.502361596E-1,1.526303589E-1,9.824007988E0,9.826342141E0
2.839618177E0,1.646013707E-1,1.478419602E-1,9.800065994E0,9.802563152E0
2.842138438E0,1.550245583E-1,1.478419602E-1,9.790489197E0,9.792832510E0
2.844658750E0,1.550245583E-1,1.430535465E-1,9.776124001E0,9.778399532E0
2.847179115E0,1.550245583E-1,1.478419602E-1,9.790489197E0,9.792832510E0
2.849699480E0,1.502361596E-1,1.478419602E-1,9.804854393E0,9.807119751E0
2.852219844E0,1.406593472E-1,1.334767491E-1,9.804854393E0,9.806771679E0
2.854740209E0,1.406593472E-1,1.143231317E-1,9.790489197E0,9.792166948E0
2.857260573E0,1.502361596E-1,1.095347255E-1,9.785700798E0,9.787466928E0
2.859780938E0,1.454477459E-1,1.191115379E-1,9.776124001E0,9.777931432E0
2.862301302E0,1.502361596E-1,1.286883354E-1,9.785700798E0,9.787700021E0
2.864821355E0,1.502361596E-1,1.478419602E-1,9.780912399E0,9.783183302E0
2.867341094E0,1.502361596E-1,1.574187577E-1,9.776124001E0,9.778545497E0
2.869860834E0,1.358709484E-1,1.430535465E-1,9.776124001E0,9.778114629E0
2.872380573E0,1.310825497E-1,1.622071713E-1,9.780912399E0,9.783135549E0
2.874900313E0,1.406593472E-1,1.574187577E-1,9.785700798E0,9.787977617E0
2.877420105E0,1.262941360E-1,1.526303589E-1,9.800065994E0,9.802068135E0
2.879939948E0,1.310825497E-1,1.622071713E-1,9.809642792E0,9.811859431E0
2.882459844E0,1.262941360E-1,1.717839688E-1,9.795277596E0,9.797597824E0
2.884979792E0,1.406593472E-1,1.717839688E-1,9.790489197E0,9.793006356E0
2.887499792E0,1.358709484E-1,1.669955701E-1,9.780912399E0,9.783281443E0
2.890019844E0,1.406593472E-1,1.286883354E-1,9.795277596E0,9.797132688E0
2.892539896E0,1.262941360E-1,1.430535465E-1,9.814431190E0,9.816286167E0
2.895059948E0,1.215057373E-1,1.382651478E-1,9.776124001E0,9.777856686E0
2.897580000E0,1.454477459E-1,1.478419602E-1,9.776124001E0,9.778323617E0
2.900100052E0,1.550245583E-1,1.669955701E-1,9.776124001E0,9.778779096E0
2.902620052E0,1.598129570E-1,1.861491799E-1,9.766547203E0,9.769628241E0
2.905140000E0,1.454477459E-1,2.053027898E-1,9.761758804E0,9.765000729E0
2.907659948E0,1.454477459E-1,2.196680009E-1,9.761758804E0,9.765313309E0
2.910179896E0,1.406593472E-1,2.196680009E-1,9.761758804E0,9.765243163E0
2.912699844E0,1.550245583E-1,2.148796022E-1,9.761758804E0,9.765354106E0
2.915219792E0,1.550245583E-1,2.005143911E-1,9.771335602E0,9.774622145E0
2.917739740E0,1.693897694E-1,1.957259923E-1,9.785700798E0,9.789123641E0
2.920259688E0,1.693897694E-1,1.861491799E-1,9.800065994E0,9.803297297E0
2.922779636E0,1.550245583E-1,1.622071713E-1,9.819219589E0,9.821782787E0
2.925299584E0,1.646013707E-1,1.622071713E-1,9.824007988E0,9.826725687E0
2.927819532E0,1.502361596E-1,1.765723825E-1,9.819219589E0,9.821956121E0
2.930339480E0,1.454477459E-1,1.909375787E-1,9.824007988E0,9.826939765E0
2.932859427E0,1.502361596E-1,1.957259923E-1,9.800065994E0,9.803171582E0
2.935379375E0,1.454477459E-1,1.909375787E-1,9.795277596E0,9.798217970E0
2.937899375E0,1.598129570E-1,2.100912035E-1,9.795277596E0,9.798833689E0
2.940419427E0,1.454477459E-1,2.053027898E-1,9.780912399E0,9.784147977E0
2.942939532E0,1.406593472E-1,2.196680009E-1,9.800065994E0,9.803536738E0
2.945459688E0,1.215057373E-1,2.148796022E-1,9.756970406E0,9.760092642E0
2.947979896E0,1.406593472E-1,2.100912035E-1,9.728240013E0,9.731524912E0
2.950500157E0,1.454477459E-1,2.100912035E-1,9.747393608E0,9.750742306E0
2.953020469E0,1.310825497E-1,2.148796022E-1,9.733028412E0,9.736282553E0
2.955540834E0,1.358709484E-1,2.244564146E-1,9.723451614E0,9.726990948E0
2.958061250E0,1.406593472E-1,2.196680009E-1,9.761758804E0,9.765243163E0
2.960581719E0,1.358709484E-1,2.100912035E-1,9.785700798E0,9.788898781E0
2.963102188E0,1.310825497E-1,1.957259923E-1,9.780912399E0,9.783748702E0
2.965622657E0,1.310825497E-1,1.957259923E-1,9.795277596E0,9.798109740E0
2.968142969E0,1.215057373E-1,1.909375787E-1,9.785700798E0,9.788317573E0
2.970662917E0,1.215057373E-1,1.813607812E-1,9.809642792E0,9.812071498E0
2.973182865E0,9.756372124E-2,1.909375787E-1,9.809642792E0,9.811985912E0
2.975702813E0,1.119289324E-1,2.053027898E-1,9.800065994E0,9.802855238E0
2.978222605E0,1.023521200E-1,2.196680009E-1,9.780912399E0,9.783914214E0
2.980742396E0,9.756372124E-2,2.292448133E-1,9.776124001E0,9.779298152E0
2.983262188E0,9.756372124E-2,2.388216257E-1,9.780912399E0,9.784314070E0
2.985781980E0,1.023521200E-1,2.340332121E-1,9.776124001E0,9.779460516E0
2.988301771E0,1.215057373E-1,2.292448133E-1,9.776124001E0,9.779566315E0
2.990821563E0,1.023521200E-1,2.196680009E-1,9.761758804E0,9.764766507E0
2.993341355E0,1.023521200E-1,2.244564146E-1,9.756970406E0,9.760088531E0
2.995861146E0,9.756372124E-2,2.196680009E-1,9.766547203E0,9.769504439E0
2.998380990E0,1.167173311E-1,2.100912035E-1,9.776124001E0,9.779077754E0
3.000900886E0,1.310825497E-1,1.957259923E-1,9.780912399E0,9.783748702E0
3.003420834E0,1.310825497E-1,2.053027898E-1,9.780912399E0,9.783944973E0
3.005940834E0,1.310825497E-1,2.053027898E-1,9.776124001E0,9.779158059E0
3.008460886E0,1.071405262E-1,2.100912035E-1,9.790489197E0,9.793329164E0
3.010980938E0,1.215057373E-1,2.148796022E-1,9.809642792E0,9.812748269E0
3.013500990E0,1.119289324E-1,2.244564146E-1,9.819219589E0,9.822422416E0
3.016021042E0,1.119289324E-1,2.292448133E-1,9.819219589E0,9.822533004E0
3.018541094E0,1.215057373E-1,2.340332121E-1,9.814431190E0,9.817973049E0
3.021061146E0,1.215057373E-1,2.436100245E-1,9.785700798E0,9.789486687E0
3.023581198E0,1.406593472E-1,2.579752207E-1,9.795277596E0,9.799683640E0
3.026101250E0,1.310825497E-1,2.483984232E-1,9.800065994E0,9.804089856E0
3.028621198E0,1.310825497E-1,2.388216257E-1,9.785700798E0,9.789492250E0
3.031140834E0,1.310825497E-1,2.340332121E-1,9.766547203E0,9.770230215E0
3.033660417E0,1.406593472E-1,2.196680009E-1,9.780912399E0,9.784389937E0
3.036180000E0,1.646013707E-1,2.100912035E-1,9.795277596E0,9.798912955E0
3.038699584E0,1.502361596E-1,1.957259923E-1,9.804854393E0,9.807958464E0
3.041219167E0,1.646013707E-1,1.909375787E-1,9.804854393E0,9.808094639E0
3.043738750E0,1.598129570E-1,1.957259923E-1,9.814431190E0,9.817683456E0
3.046258334E0,1.598129570E-1,2.100912035E-1,9.790489197E0,9.794047029E0
3.048777917E0,1.550245583E-1,2.148796022E-1,9.785700798E0,9.789287306E0
3.051297500E0,1.598129570E-1,2.244564146E-1,9.771335602E0,9.775219706E0
3.053817084E0,1.693897694E-1,2.292448133E-1,9.785700798E0,9.789851183E0
3.056336667E0,1.454477459E-1,2.148796022E-1,9.795277596E0,9.798713766E0
3.058856250E0,1.454477459E-1,2.244564146E-1,9.800065994E0,9.803715072E0
3.061375834E0,1.598129570E-1,2.196680009E-1,9.800065994E0,9.803830257E0
3.063895469E0,1.502361596E-1,2.196680009E-1,9.814431190E0,9.818038731E0
3.066415157E0,1.550245583E-1,2.196680009E-1,9.824007988E0,9.827686380E0
3.068934896E0,1.454477459E-1,2.196680009E-1,9.847949982E0,9.851473388E0
3.071454688E0,1.358709484E-1,2.005143911E-1,9.838373184E0,9.841354269E0
3.073974532E0,1.262941360E-1,1.909375787E-1,9.771335602E0,9.774016923E0
3.076494427E0,1.310825497E-1,1.957259923E-1,9.761758804E0,9.764600670E0
3.079014375E0,1.406593472E-1,1.957259923E-1,9.780912399E0,9.783881698E0
3.081534323E0,1.358709484E-1,1.909375787E-1,9.776124001E0,9.778932383E0
3.084054271E0,1.310825497E-1,1.765723825E-1,9.771335602E0,9.773809896E0
3.086574219E0,1.358709484E-1,1.813607812E-1,9.795277596E0,9.797898541E0
3.089094167E0,1.358709484E-1,1.717839688E-1,9.776124001E0,9.778577152E0
3.091614115E0,1.310825497E-1,1.861491799E-1,9.747393608E0,9.750052118E0
3.094134115E0,1.310825497E-1,1.765723825E-1,9.733028412E0,9.735512442E0
3.096654115E0,1.215057373E-1,1.717839688E-1,9.761758804E0,9.764026236E0
3.099174115E0,1.215057373E-1,1.813607812E-1,9.747393608E0,9.749837821E0
3.101694115E0,1.071405262E-1,1.717839688E-1,9.752182007E0,9.754283301E0
3.104214115E0,1.023521200E-1,1.669955701E-1,9.780912399E0,9.782873343E0
3.106734115E0,1.023521200E-1,1.717839688E-1,9.800065994E0,9.802105854E0
3.109253907E0,1.071405262E-1,1.669955701E-1,9.800065994E0,9.802074276E0
3.111773698E0,1.023521200E-1,1.717839688E-1,9.785700798E0,9.787743652E0
3.114293490E0,1.023521200E-1,1.622071713E-1,9.771335602E0,9.773217820E0
3.116813282E0,1.167173311E-1,1.622071713E-1,9.752182007E0,9.754229236E0
3.119333073E0,1.310825497E-1,1.622071713E-1,9.747393608E0,9.749624401E0
3.121852865E0,1.310825497E-1,1.717839688E-1,9.742605209E0,9.745001213E0
3.124372657E0,1.167173311E-1,1.669955701E-1,9.742605209E0,9.744735334E0
3.126892448E0,1.167173311E-1,1.622071713E-1,9.766547203E0,9.768591422E0
3.129412240E0,1.119289324E-1,1.526303589E-1,9.776124001E0,9.777956054E0
3.131932032E0,1.310825497E-1,1.526303589E-1,9.785700798E0,9.787768835E0
3.134451875E0,1.502361596E-1,1.430535465E-1,9.771335602E0,9.773537469E0
3.136971771E0,1.550245583E-1,1.526303589E-1,9.790489197E0,9.792905971E0
3.139491771E0,1.598129570E-1,1.430535465E-1,9.756970406E0,9.759327640E0
3.142011875E0,1.502361596E-1,1.526303589E-1,9.780912399E0,9.783256835E0
3.144532032E0,1.646013707E-1,1.574187577E-1,9.790489197E0,9.793138056E0
3.147052240E0,1.550245583E-1,1.717839688E-1,9.795277596E0,9.798010284E0
3.149572500E0,1.454477459E-1,1.717839688E-1,9.795277596E0,9.797863438E0
3.152092761E0,1.502361596E-1,1.717839688E-1,9.809642792E0,9.812296996E0
3.154613021E0,1.598129570E-1,1.717839688E-1,9.809642792E0,9.812448299E0
3.157133282E0,1.454477459E-1,1.622071713E-1,9.809642792E0,9.812061858E0
3.159653490E0,1.550245583E-1,1.478419602E-1,9.790489197E0,9.792832510E0
3.162173386E0,1.598129570E-1,1.526303589E-1,9.800065994E0,9.802557304E0
3.164693282E0,1.741781682E-1,1.478419602E-1,9.790489197E0,9.793154445E0
3.167213177E0,1.646013707E-1,1.622071713E-1,9.790489197E0,9.793216197E0
3.169733073E0,1.789665818E-1,1.478419602E-1,9.795277596E0,9.798027835E0
3.172253021E0,1.646013707E-1,1.382651478E-1,9.800065994E0,9.802423392E0
3.174773021E0,1.646013707E-1,1.526303589E-1,9.809642792E0,9.812210828E0
3.177293073E0,1.693897694E-1,1.382651478E-1,9.804854393E0,9.807292175E0
3.179813177E0,1.646013707E-1,1.382651478E-1,9.800065994E0,9.802423392E0
3.182333334E0,1.646013707E-1,1.430535465E-1,9.804854393E0,9.807279317E0
3.184853542E0,1.598129570E-1,1.478419602E-1,9.814431190E0,9.816845574E0
3.187373802E0,1.693897694E-1,1.478419602E-1,9.824007988E0,9.826580437E0
3.189894115E0,1.646013707E-1,1.430535465E-1,9.809642792E0,9.812066532E0
3.192414480E0,1.454477459E-1,1.430535465E-1,9.804854393E0,9.806976549E0
3.194934896E0,1.406593472E-1,1.334767491E-1,9.819219589E0,9.821134071E0
3.197455313E0,1.502361596E-1,1.478419602E-1,9.824007988E0,9.826268931E0
3.199975730E0,1.598129570E-1,1.382651478E-1,9.814431190E0,9.816706017E0
3.202495677E0,1.406593472E-1,1.334767491E-1,9.814431190E0,9.816346606E0
3.205015625E0,1.454477459E-1,1.382651478E-1,9.790489197E0,9.792545686E0
3.207535521E0,1.550245583E-1,1.286883354E-1,9.800065994E0,9.802136848E0
3.210055417E0,1.502361596E-1,1.526303589E-1,9.780912399E0,9.783256835E0
3.212575313E0,1.502361596E-1,1.526303589E-1,9.780912399E0,9.783256835E0
3.215095209E0,1.502361596E-1,1.238999367E-1,9.776124001E0,9.778063334E0
3.217615105E0,1.550245583E-1,1.286883354E-1,9.776124001E0,9.778199925E0
3.220135000E0,1.310825497E-1,1.382651478E-1,9.771335602E0,9.773192893E0
3.222654896E0,1.358709484E-1,1.238999367E-1,9.771335602E0,9.773065617E0
3.225174792E0,1.406593472E-1,1.238999367E-1,9.756970406E0,9.758770811E0
3.227694740E0,1.310825497E-1,1.334767491E-1,9.771335602E0,9.773126323E0
3.230214740E0,1.215057373E-1,1.238999367E-1,9.766547203E0,9.768088816E0
3.232734792E0,1.071405262E-1,1.526303589E-1,9.761758804E0,9.763539833E0
3.235254844E0,1.262941360E-1,1.478419602E-1,9.771335602E0,9.773270021E0
3.237774896E0,1.215057373E-1,1.382651478E-1,9.761758804E0,9.763494039E0
3.240294948E0,1.119289324E-1,1.382651478E-1,9.752182007E0,9.753804347E0
3.242815000E0,1.262941360E-1,1.478419602E-1,9.776124001E0,9.778057472E0
3.245335052E0,1.310825497E-1,1.382651478E-1,9.780912399E0,9.782767873E0
3.247855105E0,1.215057373E-1,1.334767491E-1,9.771335602E0,9.773002565E0
3.250375157E0,1.119289324E-1,1.526303589E-1,9.780912399E0,9.782743556E0
3.252895209E0,1.119289324E-1,1.526303589E-1,9.780912399E0,9.782743556E0
3.255414896E0,1.071405262E-1,1.574187577E-1,9.780912399E0,9.782765822E0
3.257934375E0,1.215057373E-1,1.526303589E-1,9.780912399E0,9.782857815E0
3.260453855E0,1.215057373E-1,1.574187577E-1,9.780912399E0,9.782933695E0
3.262973334E0,1.310825497E-1,1.717839688E-1,9.766547203E0,9.768937334E0
3.265492813E0,1.454477459E-1,1.861491799E-1,9.771335602E0,9.774190811E0
3.268012292E0,1.454477459E-1,1.957259923E-1,9.780912399E0,9.783951711E0
3.270531771E0,1.310825497E-1,1.909375787E-1,9.771335602E0,9.774079969E0
3.273051250E0,1.406593472E-1,2.005143911E-1,9.800065994E0,9.803126265E0
3.275570782E0,1.502361596E-1,2.053027898E-1,9.790489197E0,9.793793895E0
3.278090365E0,1.454477459E-1,2.148796022E-1,9.780912399E0,9.784353614E0
3.280610000E0,1.406593472E-1,2.292448133E-1,9.785700798E0,9.789396220E0
3.283129688E0,1.358709484E-1,2.340332121E-1,9.785700798E0,9.789441893E0
3.285649427E0,1.406593472E-1,2.292448133E-1,9.804854393E0,9.808542598E0
3.288169219E0,1.502361596E-1,2.388216257E-1,9.819219589E0,9.823272368E0
3.290689115E0,1.358709484E-1,2.340332121E-1,9.838373184E0,9.842094257E0
3.293209063E0,1.502361596E-1,2.436100245E-1,9.819219589E0,9.823389949E0
3.295729063E0,1.454477459E-1,2.627636492E-1,9.800065994E0,9.804666913E0
3.298249115E0,1.502361596E-1,2.675520480E-1,9.790489197E0,9.795296510E0
3.300769219E0,1.646013707E-1,2.723404467E-1,9.800065994E0,9.805231074E0
3.303289323E0,1.598129570E-1,2.675520480E-1,9.785700798E0,9.790662102E0
3.305809427E0,1.598129570E-1,2.819172442E-1,9.785700798E0,9.791065193E0
3.308329532E0,1.598129570E-1,2.819172442E-1,9.785700798E0,9.791065193E0
3.310849636E0,1.502361596E-1,2.579752207E-1,9.800065994E0,9.804611956E0
3.313369740E0,1.502361596E-1,2.675520480E-1,9.795277596E0,9.800082560E0
3.315889844E0,1.454477459E-1,2.675520480E-1,9.795277596E0,9.800010322E0
3.318410000E0,1.406593472E-1,2.627636492E-1,9.790489197E0,9.795024681E0
3.320930209E0,1.406593472E-1,2.723404467E-1,9.790489197E0,9.795286269E0
3.323450469E0,1.502361596E-1,2.819172442E-1,9.795277596E0,9.800485264E0
3.325970730E0,1.454477459E-1,2.675520480E-1,9.780912399E0,9.785652074E0
3.328490990E0,1.358709484E-1,2.675520480E-1,9.756970406E0,9.761583709E0
3.331010990E0,1.358709484E-1,2.675520480E-1,9.766547203E0,9.771155985E0
3.333530730E0,1.358709484E-1,2.675520480E-1,9.780912399E0,9.785514415E0
3.336050469E0,1.262941360E-1,2.675520480E-1,9.776124001E0,9.780599919E0
3.338570209E0,1.454477459E-1,2.723404467E-1,9.776124001E0,9.780998152E0
3.341089948E0,1.215057373E-1,2.579752207E-1,9.771335602E0,9.775495604E0
3.343609688E0,1.310825497E-1,2.531868219E-1,9.756970406E0,9.761135062E0
3.346129427E0,1.406593472E-1,2.579752207E-1,9.747393608E0,9.751821287E0
3.348649167E0,1.406593472E-1,2.579752207E-1,9.761758804E0,9.766179971E0
3.351168907E0,1.358709484E-1,2.579752207E-1,9.761758804E0,9.766112178E0
3.353688646E0,1.215057373E-1,2.436100245E-1,9.766547203E0,9.770340514E0
3.356208386E0,1.071405262E-1,2.340332121E-1,9.771335602E0,9.774725064E0
3.358728125E0,1.071405262E-1,2.196680009E-1,9.780912399E0,9.783965479E0
3.361247865E0,1.167173311E-1,2.148796022E-1,9.790489197E0,9.793542510E0
3.363767605E0,1.071405262E-1,2.196680009E-1,9.809642792E0,9.812686932E0
3.366287344E0,1.119289324E-1,2.148796022E-1,9.795277596E0,9.798273547E0
3.368807084E0,1.167173311E-1,2.005143911E-1,9.785700798E0,9.788450800E0
3.371326615E0,1.023521200E-1,2.005143911E-1,9.771335602E0,9.773928658E0
3.373846146E0,1.023521200E-1,2.100912035E-1,9.785700798E0,9.788490914E0
3.376365677E0,1.119289324E-1,2.005143911E-1,9.785700798E0,9.788394874E0
3.378885209E0,1.119289324E-1,1.909375787E-1,9.790489197E0,9.792990552E0
3.381404792E0,1.215057373E-1,2.100912035E-1,9.800065994E0,9.803070715E0
3.383924427E0,1.215057373E-1,1.861491799E-1,9.795277596E0,9.797799668E0
3.386444115E0,1.215057373E-1,1.765723825E-1,9.795277596E0,9.797622396E0
3.388963907E0,1.262941360E-1,1.669955701E-1,9.790489197E0,9.792727732E0
3.391483802E0,1.167173311E-1,1.717839688E-1,9.790489197E0,9.792691733E0
3.394003802E0,1.167173311E-1,1.669955701E-1,9.776124001E0,9.778246823E0
3.396523907E0,1.358709484E-1,1.669955701E-1,9.785700798E0,9.788068683E0
3.399044115E0,1.454477459E-1,1.622071713E-1,9.780912399E0,9.783338570E0
3.401564427E0,1.358709484E-1,1.622071713E-1,9.780912399E0,9.783200879E0
3.404084792E0,1.502361596E-1,1.717839688E-1,9.785700798E0,9.788361494E0
3.406605209E0,1.502361596E-1,1.478419602E-1,9.790489197E0,9.792757878E0
3.409125677E0,1.598129570E-1,1.574187577E-1,9.809642792E0,9.812207323E0
3.411646198E0,1.693897694E-1,1.622071713E-1,9.814431190E0,9.817232994E0
3.414166719E0,1.550245583E-1,1.669955701E-1,9.785700798E0,9.788353296E0
3.416687240E0,1.502361596E-1,1.669955701E-1,9.780912399E0,9.783491493E0
3.419207761E0,1.598129570E-1,1.622071713E-1,9.785700798E0,9.788349782E0
3.421728282E0,1.741781682E-1,1.478419602E-1,9.785700798E0,9.788367350E0
3.424248802E0,1.693897694E-1,1.669955701E-1,9.804854393E0,9.807739295E0
3.426769323E0,1.646013707E-1,1.574187577E-1,9.814431190E0,9.817073590E0
3.429289480E0,1.646013707E-1,1.526303589E-1,9.795277596E0,9.797849397E0
3.431809636E0,1.598129570E-1,1.526303589E-1,9.800065994E0,9.802557304E0
3.434329792E0,1.646013707E-1,1.622071713E-1,9.790489197E0,9.793216197E0
3.436849948E0,1.693897694E-1,1.430535465E-1,9.776124001E0,9.778637824E0
3.439370105E0,1.789665818E-1,1.574187577E-1,9.771335602E0,9.774242126E0
3.441890261E0,1.789665818E-1,1.478419602E-1,9.771335602E0,9.774092578E0
3.444410417E0,1.646013707E-1,1.574187577E-1,9.780912399E0,9.783563852E0
3.446930573E0,1.789665818E-1,1.669955701E-1,9.776124001E0,9.779187954E0
3.449450730E0,1.502361596E-1,1.622071713E-1,9.771335602E0,9.773836581E0
3.451970886E0,1.598129570E-1,1.526303589E-1,9.800065994E0,9.802557304E0
3.454491042E0,1.693897694E-1,1.622071713E-1,9.814431190E0,9.817232994E0
3.457011198E0,1.693897694E-1,1.669955701E-1,9.800065994E0,9.802952306E0
3.459531355E0,1.502361596E-1,1.574187577E-1,9.804854393E0,9.807268796E0
3.462051511E0,1.454477459E-1,1.574187577E-1,9.795277596E0,9.797622104E0
3.464571667E0,1.502361596E-1,1.526303589E-1,9.790489197E0,9.792831339E0
3.467091823E0,1.406593472E-1,1.574187577E-1,9.785700798E0,9.787977617E0
3.469611980E0,1.358709484E-1,1.765723825E-1,9.795277596E0,9.797811077E0
3.472132136E0,1.167173311E-1,1.574187577E-1,9.800065994E0,9.802025153E0
3.474652292E0,1.310825497E-1,1.478419602E-1,9.804854393E0,9.806845035E0
3.477172448E0,1.358709484E-1,1.574187577E-1,9.785700798E0,9.787909976E0
3.479692605E0,1.358709484E-1,1.526303589E-1,9.785700798E0,9.787834135E0
3.482212761E0,1.358709484E-1,1.622071713E-1,9.776124001E0,9.778413601E0
3.484732917E0,1.262941360E-1,1.813607812E-1,9.771335602E0,9.773834528E0
3.487253073E0,1.310825497E-1,1.765723825E-1,9.766547203E0,9.769022710E0
3.489773230E0,1.215057373E-1,1.669955701E-1,9.785700798E0,9.787879815E0
3.492293386E0,1.167173311E-1,1.622071713E-1,9.780912399E0,9.782953617E0
3.494813542E0,1.262941360E-1,1.669955701E-1,9.761758804E0,9.764003927E0
3.497333490E0,1.358709484E-1,1.574187577E-1,9.780912399E0,9.783122658E0
3.499853438E0,1.310825497E-1,1.526303589E-1,9.776124001E0,9.778194063E0
3.502373386E0,1.262941360E-1,1.478419602E-1,9.780912399E0,9.782844924E0
3.504893334E0,1.310825497E-1,1.622071713E-1,9.776124001E0,9.778348239E0
3.507413282E0,1.310825497E-1,1.526303589E-1,9.790489197E0,9.792556223E0
3.509933230E0,1.406593472E-1,1.717839688E-1,9.790489197E0,9.793006356E0
3.512453177E0,1.262941360E-1,1.622071713E-1,9.809642792E0,9.811796628E0
3.514973021E0,1.310825497E-1,1.574187577E-1,9.809642792E0,9.811781439E0
3.517492865E0,1.310825497E-1,1.574187577E-1,9.800065994E0,9.802206731E0
3.520012709E0,1.406593472E-1,1.526303589E-1,9.795277596E0,9.797476423E0
3.522532552E0,1.454477459E-1,1.382651478E-1,9.804854393E0,9.806907870E0
3.525052396E0,1.406593472E-1,1.526303589E-1,9.809642792E0,9.811838400E0
3.527572240E0,1.406593472E-1,1.574187577E-1,9.790489197E0,9.792764902E0
3.530092136E0,1.406593472E-1,1.717839688E-1,9.785700798E0,9.788219189E0
3.532612084E0,1.502361596E-1,1.622071713E-1,9.776124001E0,9.778623755E0
3.535132084E0,1.406593472E-1,1.622071713E-1,9.771335602E0,9.773694064E0
3.537652136E0,1.454477459E-1,1.574187577E-1,9.761758804E0,9.764111361E0
3.540172240E0,1.598129570E-1,1.622071713E-1,9.771335602E0,9.773988479E0
3.542692344E0,1.454477459E-1,1.765723825E-1,9.761758804E0,9.764438940E0
3.545212448E0,1.502361596E-1,1.669955701E-1,9.776124001E0,9.778704357E0
3.547732552E0,1.502361596E-1,1.813607812E-1,9.771335602E0,9.774173217E0
3.550252657E0,1.646013707E-1,1.669955701E-1,9.756970406E0,9.759787530E0
3.552772761E0,1.693897694E-1,1.765723825E-1,9.761758804E0,9.764824917E0
3.555292761E0,1.550245583E-1,1.526303589E-1,9.771335602E0,9.773757112E0
3.557812605E0,1.502361596E-1,1.669955701E-1,9.766547203E0,9.769130089E0
3.560332448E0,1.358709484E-1,1.861491799E-1,9.776124001E0,9.778840059E0
3.562852292E0,1.406593472E-1,1.861491799E-1,9.771335602E0,9.774120728E0
3.565372136E0,1.406593472E-1,1.765723825E-1,9.776124001E0,9.778730149E0
3.567891980E0,1.502361596E-1,2.005143911E-1,9.776124001E0,9.779334200E0
3.570411823E0,1.358709484E-1,1.861491799E-1,9.766547203E0,9.769265924E0
3.572931667E0,1.358709484E-1,1.909375787E-1,9.761758804E0,9.764571318E0
3.575451563E0,1.310825497E-1,1.957259923E-1,9.756970406E0,9.759813666E0
3.577971511E0,1.262941360E-1,2.100912035E-1,9.752182007E0,9.755262294E0
3.580491511E0,1.454477459E-1,2.053027898E-1,9.761758804E0,9.765000729E0
3.583011563E0,1.406593472E-1,2.148796022E-1,9.756970406E0,9.760349881E0
3.585531667E0,1.310825497E-1,2.292448133E-1,9.776124001E0,9.779689990E0
3.588051771E0,1.406593472E-1,2.292448133E-1,9.776124001E0,9.779823041E0
3.590571875E0,1.454477459E-1,2.196680009E-1,9.790489197E0,9.794033275E0
3.593091980E0,1.550245583E-1,2.292448133E-1,9.780912399E0,9.784826680E0
3.595612084E0,1.454477459E-1,2.292448133E-1,9.780912399E0,9.784679637E0
3.598132084E0,1.598129570E-1,2.244564146E-1,9.790489197E0,9.794365706E0
3.600651823E0,1.406593472E-1,2.292448133E-1,9.809642792E0,9.813329197E0
3.603171459E0,1.310825497E-1,2.388216257E-1,9.804854393E0,9.808638441E0
3.605691094E0,1.167173311E-1,2.436100245E-1,9.828796387E0,9.832507676E0
3.608210730E0,1.262941360E-1,2.436100245E-1,9.809642792E0,9.813479900E0
3.610730365E0,1.215057373E-1,2.483984232E-1,9.814431190E0,9.818325978E0
3.613250000E0,1.310825497E-1,2.436100245E-1,9.809642792E0,9.813542693E0
3.615769636E0,1.454477459E-1,2.531868219E-1,9.809642792E0,9.813987483E0
3.618289271E0,1.550245583E-1,2.627636492E-1,9.814431190E0,9.819171907E0
3.620808907E0,1.358709484E-1,2.531868219E-1,9.809642792E0,9.813850222E0
3.623328542E0,1.262941360E-1,2.723404467E-1,9.804854393E0,9.809448975E0
3.625848230E0,1.502361596E-1,2.723404467E-1,9.804854393E0,9.809786435E0
3.628367969E0,1.454477459E-1,2.627636492E-1,9.804854393E0,9.809453066E0
3.630887813E0,1.406593472E-1,2.483984232E-1,9.814431190E0,9.818581691E0
3.633407761E0,1.358709484E-1,2.388216257E-1,9.819219589E0,9.823063169E0
3.635927813E0,1.310825497E-1,2.388216257E-1,9.790489197E0,9.794278795E0
3.638447969E0,1.310825497E-1,2.436100245E-1,9.809642792E0,9.813542693E0
3.640968177E0,1.358709484E-1,2.340332121E-1,9.809642792E0,9.813374759E0
3.643488438E0,1.454477459E-1,2.388216257E-1,9.800065994E0,9.804054483E0
3.646008750E0,1.406593472E-1,2.388216257E-1,9.795277596E0,9.799198130E0
3.648529063E0,1.358709484E-1,2.340332121E-1,9.795277596E0,9.799015034E0
3.651049375E0,1.598129570E-1,2.292448133E-1,9.809642792E0,9.813622423E0
3.653569011E0,1.502361596E-1,2.244564146E-1,9.800065994E0,9.803787282E0
3.656088646E0,1.598129570E-1,2.244564146E-1,9.790489197E0,9.794365706E0
3.658608125E0,1.406593472E-1,2.148796022E-1,9.800065994E0,9.803430613E0
3.661127552E0,1.406593472E-1,2.244564146E-1,9.785700798E0,9.789285257E0
3.663646980E0,1.454477459E-1,2.244564146E-1,9.776124001E0,9.779782012E0
3.666166407E0,1.358709484E-1,2.148796022E-1,9.780912399E0,9.784215938E0
3.668685886E0,1.646013707E-1,2.100912035E-1,9.771335602E0,9.774979865E0
3.671205417E0,1.646013707E-1,2.100912035E-1,9.771335602E0,9.774979865E0
3.673725052E0,1.502361596E-1,1.909375787E-1,9.790489197E0,9.793503294E0
3.676244792E0,1.406593472E-1,1.813607812E-1,9.756970406E0,9.759669476E0
3.678764636E0,1.454477459E-1,1.717839688E-1,9.766547203E0,9.769140650E0
3.681284584E0,1.310825497E-1,1.717839688E-1,9.776124001E0,9.778511791E0
3.683804636E0,1.598129570E-1,1.622071713E-1,9.761758804E0,9.764414284E0
3.686324740E0,1.454477459E-1,1.622071713E-1,9.766547203E0,9.768976941E0
3.688844896E0,1.310825497E-1,1.813607812E-1,9.776124001E0,9.778684719E0
3.691365105E0,1.406593472E-1,1.861491799E-1,9.776124001E0,9.778907763E0
3.693885313E0,1.406593472E-1,1.765723825E-1,9.785700798E0,9.788304397E0
3.696405521E0,1.215057373E-1,1.813607812E-1,9.785700798E0,9.788135445E0
3.698925469E0,1.262941360E-1,1.622071713E-1,9.756970406E0,9.759135867E0
3.701445157E0,1.215057373E-1,1.574187577E-1,9.780912399E0,9.782933695E0
3.703964844E0,1.454477459E-1,1.526303589E-1,9.795277596E0,9.797546338E0
3.706484532E0,1.550245583E-1,1.574187577E-1,9.790489197E0,9.792981772E0
3.709004219E0,1.502361596E-1,1.669955701E-1,9.780912399E0,9.783491493E0
3.711523907E0,1.310825497E-1,1.622071713E-1,9.776124001E0,9.778348239E0
3.714043594E0,1.215057373E-1,1.622071713E-1,9.785700798E0,9.787799289E0
3.716563282E0,1.310825497E-1,1.574187577E-1,9.761758804E0,9.763907940E0
3.719082969E0,1.262941360E-1,1.669955701E-1,9.785700798E0,9.787940429E0
3.721602657E0,1.215057373E-1,1.622071713E-1,9.776124001E0,9.778224547E0
3.724122344E0,1.119289324E-1,1.669955701E-1,9.780912399E0,9.782978226E0
3.726642032E0,1.167173311E-1,1.717839688E-1,9.776124001E0,9.778329773E0
3.729161719E0,1.215057373E-1,1.717839688E-1,9.780912399E0,9.783175391E0
3.731681407E0,1.310825497E-1,1.669955701E-1,9.785700798E0,9.788003385E0
3.734201094E0,1.406593472E-1,1.765723825E-1,9.785700798E0,9.788304397E0
3.736720782E0,1.310825497E-1,1.765723825E-1,9.785700798E0,9.788171461E0
3.739240469E0,1.502361596E-1,1.813607812E-1,9.814431190E0,9.817256349E0
3.741760157E0,1.550245583E-1,1.813607812E-1,9.814431190E0,9.817330795E0
3.744279844E0,1.502361596E-1,1.861491799E-1,9.804854393E0,9.807772025E0
3.746799584E0,1.550245583E-1,1.861491799E-1,9.795277596E0,9.798272669E0
3.749319375E0,1.550245583E-1,1.861491799E-1,9.800065994E0,9.803059605E0
3.751839271E0,1.502361596E-1,1.861491799E-1,9.790489197E0,9.793411108E0
3.754359219E0,1.646013707E-1,1.861491799E-1,9.790489197E0,9.793642011E0
3.756879219E0,1.646013707E-1,1.909375787E-1,9.785700798E0,9.788947384E0
3.759399271E0,1.598129570E-1,1.861491799E-1,9.785700798E0,9.788775807E0
3.761919375E0,1.693897694E-1,1.957259923E-1,9.785700798E0,9.789123641E0
3.764439480E0,1.646013707E-1,1.909375787E-1,9.795277596E0,9.798521008E0
3.766959584E0,1.741781682E-1,2.005143911E-1,9.785700798E0,9.789304580E0
3.769479688E0,1.741781682E-1,2.053027898E-1,9.785700798E0,9.789403832E0
3.771999792E0,1.789665818E-1,1.957259923E-1,9.776124001E0,9.779720762E0
3.774519636E0,1.789665818E-1,2.005143911E-1,9.790489197E0,9.794177544E0
3.777039375E0,1.741781682E-1,1.909375787E-1,9.780912399E0,9.784326372E0
3.779559115E0,1.693897694E-1,2.053027898E-1,9.771335602E0,9.774959927E0
3.782078855E0,1.550245583E-1,2.005143911E-1,9.776124001E0,9.779408935E0
3.784598594E0,1.598129570E-1,2.005143911E-1,9.780912399E0,9.784272766E0
3.787118334E0,1.598129570E-1,2.053027898E-1,9.795277596E0,9.798732193E0
3.789638073E0,1.741781682E-1,1.957259923E-1,9.795277596E0,9.798781040E0
3.792157813E0,1.550245583E-1,2.100912035E-1,9.776124001E0,9.779609982E0
3.794677552E0,1.598129570E-1,2.196680009E-1,9.785700798E0,9.789470584E0
3.797197292E0,1.646013707E-1,2.005143911E-1,9.785700798E0,9.789138866E0
3.799717032E0,1.454477459E-1,1.813607812E-1,9.780912399E0,9.783674879E0
3.802236771E0,1.262941360E-1,2.100912035E-1,9.771335602E0,9.774409853E0
3.804756511E0,1.167173311E-1,2.005143911E-1,9.766547203E0,9.769302597E0
3.807276250E0,1.358709484E-1,1.909375787E-1,9.766547203E0,9.769358338E0
3.809795990E0,1.262941360E-1,1.957259923E-1,9.790489197E0,9.793259804E0
3.812315730E0,1.167173311E-1,1.957259923E-1,9.780912399E0,9.783566781E0
3.814835469E0,1.119289324E-1,1.861491799E-1,9.785700798E0,9.788111141E0
3.817355209E0,1.262941360E-1,1.861491799E-1,9.780912399E0,9.783498816E0
3.819874948E0,1.119289324E-1,1.669955701E-1,9.780912399E0,9.782978226E0
3.822394688E0,1.167173311E-1,1.669955701E-1,9.785700798E0,9.787821543E0
3.824914427E0,1.119289324E-1,1.717839688E-1,9.795277596E0,9.797423181E0
3.827434167E0,1.119289324E-1,1.909375787E-1,9.776124001E0,9.778629031E0
3.829953750E0,1.119289324E-1,1.717839688E-1,9.785700798E0,9.787848483E0
3.832473334E0,9.277531505E-2,1.574187577E-1,9.785700798E0,9.787406604E0
3.834992917E0,1.023521200E-1,1.622071713E-1,9.804854393E0,9.806730178E0
3.837512500E0,1.071405262E-1,1.574187577E-1,9.809642792E0,9.811490787E0
3.840032084E0,1.119289324E-1,1.430535465E-1,9.819219589E0,9.820899437E0
3.842551667E0,1.262941360E-1,1.382651478E-1,9.814431190E0,9.816217553E0
3.845071250E0,1.215057373E-1,1.286883354E-1,9.819219589E0,9.820814512E0
3.847590886E0,1.310825497E-1,1.430535465E-1,9.785700798E0,9.787624179E0
3.850110573E0,1.358709484E-1,1.478419602E-1,9.771335602E0,9.773398467E0
3.852630313E0,1.310825497E-1,1.430535465E-1,9.780912399E0,9.782836721E0
3.855150105E0,1.310825497E-1,1.382651478E-1,9.780912399E0,9.782767873E0
3.857669948E0,1.310825497E-1,1.238999367E-1,9.766547203E0,9.768212636E0
3.860189844E0,1.502361596E-1,1.382651478E-1,9.790489197E0,9.792617978E0
3.862709740E0,1.646013707E-1,1.478419602E-1,9.780912399E0,9.783414446E0
3.865229636E0,1.550245583E-1,1.334767491E-1,9.771335602E0,9.773476766E0
3.867749532E0,1.598129570E-1,1.286883354E-1,9.771335602E0,9.773489669E0
3.870269427E0,1.837549806E-1,1.286883354E-1,9.771335602E0,9.773910478E0
3.872789323E0,1.837549806E-1,1.238999367E-1,9.771335602E0,9.773848604E0
3.875309219E0,1.789665818E-1,1.334767491E-1,9.761758804E0,9.764311549E0
3.877829115E0,1.933317930E-1,1.334767491E-1,9.766547203E0,9.769372421E0
3.880349011E0,1.885433793E-1,1.334767491E-1,9.771335602E0,9.774065894E0
3.882868907E0,1.933317930E-1,1.430535465E-1,9.776124001E0,9.779081857E0
3.885388802E0,1.837549806E-1,1.430535465E-1,9.785700798E0,9.788471296E0
3.887908698E0,1.837549806E-1,1.334767491E-1,9.785700798E0,9.788336020E0
3.890428594E0,1.789665818E-1,1.334767491E-1,9.776124001E0,9.778672996E0
3.892948490E0,1.789665818E-1,1.574187577E-1,9.776124001E0,9.779029102E0
3.895468386E0,1.981201917E-1,1.574187577E-1,9.761758804E0,9.765038005E0
3.897988177E0,1.693897694E-1,1.669955701E-1,9.761758804E0,9.764656439E0
3.900507969E0,1.741781682E-1,1.574187577E-1,9.780912399E0,9.783729660E0
3.903027761E0,1.741781682E-1,1.765723825E-1,9.780912399E0,9.784056582E0
3.905547552E0,1.598129570E-1,1.717839688E-1,9.800065994E0,9.802874242E0
3.908067344E0,1.550245583E-1,1.813607812E-1,9.795277596E0,9.798182868E0
3.910586823E0,1.598129570E-1,1.813607812E-1,9.790489197E0,9.793472858E0
3.913106302E0,1.502361596E-1,1.909375787E-1,9.809642792E0,9.812651006E0
3.915625782E0,1.358709484E-1,1.765723825E-1,9.780912399E0,9.783449600E0
3.918145261E0,1.262941360E-1,1.957259923E-1,9.771335602E0,9.774111638E0
3.920664792E0,1.262941360E-1,1.909375787E-1,9.785700798E0,9.788378184E0
3.923184375E0,1.215057373E-1,1.909375787E-1,9.785700798E0,9.788317573E0
3.925704011E0,1.262941360E-1,2.053027898E-1,9.790489197E0,9.793455884E0
3.928223698E0,1.167173311E-1,2.053027898E-1,9.800065994E0,9.802911081E0
3.930743490E0,1.023521200E-1,2.053027898E-1,9.795277596E0,9.797963481E0
3.933263386E0,1.119289324E-1,2.148796022E-1,9.809642792E0,9.812634357E0
3.935783386E0,1.071405262E-1,2.148796022E-1,9.804854393E0,9.807793942E0
3.938303490E0,1.071405262E-1,2.148796022E-1,9.790489197E0,9.793433057E0
3.940823646E0,9.756372124E-2,2.292448133E-1,9.795277596E0,9.798445542E0
3.943343855E0,1.023521200E-1,2.292448133E-1,9.790489197E0,9.793707564E0
3.945864063E0,1.071405262E-1,2.244564146E-1,9.785700798E0,9.788861011E0
3.948384271E0,9.277531505E-2,2.340332121E-1,9.785700798E0,9.788938600E0
3.950904271E0,9.277531505E-2,2.531868219E-1,9.785700798E0,9.789415250E0
3.953423386E0,9.277531505E-2,2.340332121E-1,9.790489197E0,9.793725416E0
3.955942500E0,1.167173311E-1,2.292448133E-1,9.790489197E0,9.793868226E0
3.958461615E0,1.358709484E-1,2.196680009E-1,9.790489197E0,9.793895734E0
3.960980730E0,1.310825497E-1,2.483984232E-1,9.800065994E0,9.804089856E0
3.963499896E0,1.406593472E-1,2.388216257E-1,9.785700798E0,9.789625168E0
3.966019115E0,1.310825497E-1,2.388216257E-1,9.785700798E0,9.789492250E0
3.968538438E0,1.215057373E-1,2.244564146E-1,9.766547203E0,9.769881708E0
3.971057865E0,1.358709484E-1,2.292448133E-1,9.785700798E0,9.789328588E0
3.973577396E0,1.502361596E-1,2.148796022E-1,9.780912399E0,9.784425967E0
3.976097032E0,1.502361596E-1,2.100912035E-1,9.785700798E0,9.789108709E0
3.978616771E0,1.502361596E-1,2.053027898E-1,9.795277596E0,9.798580678E0
3.981136615E0,1.502361596E-1,2.100912035E-1,9.814431190E0,9.817829129E0
3.983656563E0,1.502361596E-1,2.148796022E-1,9.819219589E0,9.822719455E0
3.986176615E0,1.598129570E-1,2.196680009E-1,9.795277596E0,9.799043697E0
3.988696771E0,1.646013707E-1,2.196680009E-1,9.776124001E0,9.779976898E0
3.991217032E0,1.741781682E-1,2.196680009E-1,9.776124001E0,9.780142767E0
3.993737344E0,1.789665818E-1,2.292448133E-1,9.761758804E0,9.766090168E0
3.996257709E0,1.789665818E-1,2.292448133E-1,9.776124001E0,9.780449003E0
3.998778125E0,1.981201917E-1,2.148796022E-1,9.790489197E0,9.794850870E0
4.001298594E0,1.837549806E-1,2.148796022E-1,9.800065994E0,9.804143646E0
4.003819115E0,1.789665818E-1,2.148796022E-1,9.790489197E0,9.794482171E0
4.006339688E0,1.598129570E-1,2.005143911E-1,9.800065994E0,9.803419796E0
4.008860313E0,1.693897694E-1,2.005143911E-1,9.795277596E0,9.798793910E0
4.011380990E0,1.502361596E-1,2.053027898E-1,9.804854393E0,9.808154251E0
4.013901719E0,1.502361596E-1,2.005143911E-1,9.795277596E0,9.798481520E0
4.016422500E0,1.598129570E-1,1.957259923E-1,9.766547203E0,9.769815408E0
4.018943282E0,1.502361596E-1,1.909375787E-1,9.790489197E0,9.793503294E0
4.021464063E0,1.358709484E-1,2.053027898E-1,9.795277596E0,9.798370953E0
4.023984844E0,1.454477459E-1,1.909375787E-1,9.804854393E0,9.807791896E0
4.026505157E0,1.406593472E-1,1.909375787E-1,9.785700798E0,9.788574070E0
4.029025313E0,1.310825497E-1,2.053027898E-1,9.785700798E0,9.788731888E0
4.031545157E0,1.406593472E-1,1.957259923E-1,9.795277596E0,9.798242541E0
4.034065000E0,1.310825497E-1,1.909375787E-1,9.790489197E0,9.793228196E0
4.036584844E0,1.406593472E-1,2.005143911E-1,9.771335602E0,9.774404868E0
4.039104688E0,1.215057373E-1,2.005143911E-1,9.790489197E0,9.793296094E0
4.041624532E0,1.119289324E-1,1.957259923E-1,9.795277596E0,9.797872214E0
4.044144375E0,1.358709484E-1,2.244564146E-1,9.771335602E0,9.774857597E0
4.046664219E0,1.215057373E-1,2.100912035E-1,9.776124001E0,9.779136078E0
4.049184063E0,1.262941360E-1,2.005143911E-1,9.771335602E0,9.774208698E0
4.051703907E0,1.215057373E-1,1.957259923E-1,9.795277596E0,9.797986297E0
4.054223750E0,1.262941360E-1,2.053027898E-1,9.771335602E0,9.774308103E0
4.056743646E0,1.262941360E-1,2.100912035E-1,9.766547203E0,9.769622961E0
4.059263542E0,1.215057373E-1,2.100912035E-1,9.752182007E0,9.755201477E0
4.061783490E0,1.215057373E-1,2.148796022E-1,9.766547203E0,9.769666379E0
4.064303438E0,1.215057373E-1,2.100912035E-1,9.785700798E0,9.788709929E0
4.066823386E0,1.310825497E-1,2.148796022E-1,9.780912399E0,9.784150614E0
4.069343334E0,1.406593472E-1,2.148796022E-1,9.785700798E0,9.789070354E0
4.071863282E0,1.262941360E-1,2.100912035E-1,9.766547203E0,9.769622961E0
4.074383230E0,1.215057373E-1,2.100912035E-1,9.785700798E0,9.788709929E0
4.076903177E0,1.215057373E-1,2.148796022E-1,9.790489197E0,9.793600747E0
4.079423125E0,1.262941360E-1,2.053027898E-1,9.790489197E0,9.793455884E0
4.081943125E0,1.215057373E-1,2.148796022E-1,9.790489197E0,9.793600747E0
4.084463177E0,1.215057373E-1,2.244564146E-1,9.800065994E0,9.803389099E0
4.086983282E0,1.358709484E-1,2.292448133E-1,9.804854393E0,9.808475099E0
4.089503438E0,1.358709484E-1,2.196680009E-1,9.800065994E0,9.803469204E0
4.092023594E0,1.598129570E-1,2.292448133E-1,9.800065994E0,9.804049513E0
4.094543750E0,1.502361596E-1,2.292448133E-1,9.790489197E0,9.794325030E0
4.097063855E0,1.454477459E-1,2.148796022E-1,9.790489197E0,9.793927047E0
4.099583594E0,1.454477459E-1,2.148796022E-1,9.804854393E0,9.808287208E0
4.102103282E0,1.598129570E-1,2.244564146E-1,9.795277596E0,9.799152210E0
4.104622917E0,1.598129570E-1,2.053027898E-1,9.785700798E0,9.789158775E0
4.107142552E0,1.598129570E-1,2.196680009E-1,9.814431190E0,9.818189945E0
4.109662188E0,1.550245583E-1,2.196680009E-1,9.809642792E0,9.813326569E0
4.112181823E0,1.502361596E-1,2.196680009E-1,9.814431190E0,9.818038731E0
4.114701511E0,1.646013707E-1,2.148796022E-1,9.809642792E0,9.813376511E0
4.117221250E0,1.646013707E-1,2.100912035E-1,9.809642792E0,9.813272830E0
4.119741042E0,1.454477459E-1,2.053027898E-1,9.790489197E0,9.793721611E0
4.122260834E0,1.646013707E-1,2.053027898E-1,9.795277596E0,9.798811460E0
4.124780625E0,1.646013707E-1,2.005143911E-1,9.795277596E0,9.798712303E0
4.127300417E0,1.693897694E-1,1.957259923E-1,9.785700798E0,9.789123641E0
4.129820209E0,1.741781682E-1,2.148796022E-1,9.785700798E0,9.789609358E0
4.132340000E0,1.646013707E-1,2.100912035E-1,9.809642792E0,9.813272830E0
4.134859792E0,1.598129570E-1,2.100912035E-1,9.804854393E0,9.808407015E0
4.137379584E0,1.550245583E-1,2.100912035E-1,9.795277596E0,9.798756763E0
4.139899375E0,1.646013707E-1,1.813607812E-1,9.780912399E0,9.783978368E0
4.142419167E0,1.598129570E-1,1.669955701E-1,9.785700798E0,9.788430304E0
4.144938959E0,1.358709484E-1,1.717839688E-1,9.790489197E0,9.792938750E0
4.147458750E0,1.454477459E-1,1.717839688E-1,9.790489197E0,9.793076304E0
4.149978542E0,1.406593472E-1,1.813607812E-1,9.766547203E0,9.769243628E0
4.152498334E0,1.454477459E-1,1.669955701E-1,9.761758804E0,9.764270455E0
4.155018125E0,1.550245583E-1,1.861491799E-1,9.761758804E0,9.764764159E0
4.157537917E0,1.406593472E-1,1.909375787E-1,9.766547203E0,9.769426108E0
4.160057709E0,1.358709484E-1,1.861491799E-1,9.756970406E0,9.759691795E0
4.162577500E0,1.358709484E-1,2.005143911E-1,9.756970406E0,9.759976354E0
4.165097292E0,1.358709484E-1,1.861491799E-1,9.766547203E0,9.769265924E0
4.167617084E0,1.262941360E-1,1.765723825E-1,9.776124001E0,9.778534066E0
4.170136875E0,1.262941360E-1,1.765723825E-1,9.747393608E0,9.749810776E0
4.172656667E0,1.215057373E-1,1.813607812E-1,9.742605209E0,9.745050623E0
4.175176459E0,1.167173311E-1,1.717839688E-1,9.756970406E0,9.759180507E0
4.177696302E0,1.262941360E-1,1.717839688E-1,9.771335602E0,9.773661514E0
4.180216146E0,1.358709484E-1,1.717839688E-1,9.776124001E0,9.778577152E0
4.182735990E0,1.310825497E-1,1.669955701E-1,9.780912399E0,9.783216113E0
4.185255834E0,1.262941360E-1,1.669955701E-1,9.790489197E0,9.792727732E0
4.187775677E0,1.358709484E-1,1.669955701E-1,9.785700798E0,9.788068683E0
4.190295521E0,1.310825497E-1,1.669955701E-1,9.790489197E0,9.792790658E0
4.192815365E0,1.310825497E-1,1.669955701E-1,9.785700798E0,9.788003385E0
4.195335209E0,1.215057373E-1,1.813607812E-1,9.766547203E0,9.768986623E0
4.197854896E0,1.119289324E-1,1.765723825E-1,9.790489197E0,9.792721001E0
4.200374427E0,1.167173311E-1,1.813607812E-1,9.795277596E0,9.797651649E0
