"Time (s)","Linear Acceleration x (m/s^2)","Linear Acceleration y (m/s^2)","Linear Acceleration z (m/s^2)","Absolute acceleration (m/s^2)"
8.750911400E-2,-3.007079661E-2,-4.404034466E-3,-1.292991638E-2,3.302773177E-2
9.241432300E-2,-3.594800830E-2,-4.097279161E-3,-1.175594330E-2,3.804272861E-2
9.732020800E-2,-2.417114377E-2,1.809545979E-2,1.994895935E-2,3.618909829E-2
1.022313540E-1,-3.110216558E-2,1.655986533E-2,1.841354370E-2,3.975716835E-2
1.071519270E-1,-1.549129188E-2,1.527991518E-2,1.709747314E-2,2.767272159E-2
1.120855210E-1,-1.887711883E-2,3.208815306E-2,7.018089294E-3,3.788467711E-2
1.170351040E-1,-2.662482858E-2,1.661463827E-2,-1.137828827E-2,3.338252755E-2
1.220028640E-1,-3.406985104E-2,2.009461448E-2,-1.695632935E-3,3.959069906E-2
1.269902080E-1,-1.865649223E-2,1.897646114E-2,-1.969051361E-2,3.310418563E-2
1.319976560E-1,-2.679392695E-2,8.802983910E-3,-3.226184845E-2,4.285130001E-2
1.370249480E-1,-3.459940851E-2,8.261378855E-3,-4.884243011E-2,6.042311171E-2
1.420709890E-1,-1.941807568E-2,-5.866248161E-3,-5.107307434E-2,5.495392118E-2
1.471340100E-1,-1.868395507E-2,-1.017216966E-2,-5.331897736E-2,5.740624146E-2
1.522116140E-1,-2.270200849E-2,-5.203291774E-3,-5.099391937E-2,5.606099578E-2
1.573009370E-1,-2.190589905E-2,-1.880580932E-2,-4.886531830E-2,5.675690451E-2
1.623987500E-1,-1.658280194E-2,-1.810755208E-2,-4.230976105E-2,4.891818315E-2
1.674987500E-1,-1.154214144E-2,-1.746518165E-2,-2.686500549E-2,3.405851023E-2
1.725987500E-1,7.127627730E-3,-1.687132195E-2,-1.203250885E-2,2.191405600E-2
1.776651040E-1,2.054780722E-3,-2.560716309E-2,2.254486084E-3,2.578820724E-2
1.826855730E-1,6.306663156E-3,-2.482582442E-2,6.807327271E-3,2.650349530E-2
1.877060420E-1,5.846053362E-3,-1.026427373E-2,3.898811340E-2,4.073824544E-2
1.927265100E-1,7.728040218E-4,-1.008570194E-2,3.773689270E-2,3.906906296E-2
1.977469790E-1,4.976689816E-4,-9.872555733E-3,2.264785767E-2,2.471114097E-2
2.027674480E-1,4.874646664E-3,-5.032222718E-3,2.196788788E-2,2.305804726E-2
2.077879170E-1,-4.815116525E-3,4.307527095E-3,1.668071747E-2,1.788816570E-2
2.128083850E-1,-2.776980400E-4,-5.271889269E-3,-2.395629883E-3,5.797324832E-3
2.178288540E-1,8.839756250E-3,-1.448777691E-2,-2.094554901E-2,2.695835666E-2
2.228493230E-1,8.400186896E-3,-2.346809395E-2,-1.571559906E-2,2.946683945E-2
2.278697920E-1,2.186305821E-2,-1.357734203E-2,-3.394412994E-2,4.259743524E-2
2.328902600E-1,1.638440788E-2,5.381647497E-3,-2.840137482E-2,3.322723345E-2
2.379107290E-1,1.110452414E-2,4.757456481E-4,-3.235435486E-2,3.421024800E-2
2.429311980E-1,1.530386508E-2,5.082875490E-3,-4.090404510E-2,4.396799763E-2
2.479516670E-1,1.941235363E-2,9.583346546E-3,-2.590274811E-2,3.375844138E-2
2.529721350E-1,1.875899732E-2,4.580609500E-3,-6.587028503E-3,2.040271816E-2
2.579926040E-1,1.350219548E-2,9.053207934E-3,-1.753807068E-3,1.635070934E-2
2.630130730E-1,1.778456569E-2,4.117041826E-3,2.969741821E-3,1.849486893E-2
2.680335420E-1,1.256258786E-2,1.807980239E-2,7.593154907E-3,2.328849222E-2
2.730540100E-1,1.677951217E-2,3.583714366E-3,1.212310791E-2,2.100868351E-2
2.780744790E-1,1.627929509E-2,-5.922503769E-3,1.187419891E-2,2.100209750E-2
2.830949480E-1,2.053798735E-2,-5.803499371E-3,2.101612091E-2,2.995274391E-2
2.881154170E-1,2.007867396E-2,-1.043318585E-2,2.059745789E-2,3.059836248E-2
2.931358850E-1,1.024711132E-2,-3.375311196E-2,1.417160034E-3,3.530275060E-2
2.981563540E-1,1.000118256E-2,-1.911830530E-2,1.391410828E-3,2.162103776E-2
3.031768230E-1,1.451323926E-2,-3.295625001E-2,6.064414978E-3,3.651747058E-2
3.081972920E-1,1.424717903E-2,-2.299969830E-2,-3.447532654E-3,2.727368170E-2
3.132177600E-1,9.289503098E-3,-2.738743834E-2,-1.748752594E-2,3.379615674E-2
3.182382290E-1,1.853211224E-2,-2.230008878E-2,-1.717472076E-2,3.370021034E-2
3.232586980E-1,-5.051195621E-4,-7.900312543E-3,-1.687526703E-2,1.863986913E-2
3.282791670E-1,-4.425942898E-4,-1.722783595E-2,-1.658535004E-2,2.391794425E-2
3.332996350E-1,1.374073327E-2,-1.233328506E-2,-6.890296936E-3,1.970771075E-2
3.383201040E-1,-5.217358470E-3,-2.762619406E-3,2.639770508E-3,6.466937739E-3
3.433405730E-1,-3.680437803E-4,6.598945707E-3,-2.114295959E-3,6.939148944E-3
3.483610420E-1,-2.564936876E-4,1.575861871E-2,2.629280090E-3,1.597851578E-2
3.533815100E-1,-4.859715700E-3,1.069372147E-2,-2.126693726E-3,1.193714128E-2
3.584019790E-1,-9.391725063E-3,1.513537765E-2,2.617835999E-3,1.800381130E-2
3.634224480E-1,-1.390777528E-2,1.479766518E-2,1.200580597E-2,2.359102552E-2
3.684429170E-1,-1.364284754E-2,9.804230183E-3,3.068637848E-2,3.498433996E-2
3.734633850E-1,-1.333348453E-2,4.887562245E-3,2.550983429E-2,2.919626209E-2
3.784838540E-1,-8.365452290E-3,4.551559687E-5,1.543998718E-3,8.506867562E-3
3.835043230E-1,-8.241772652E-3,4.711654037E-3,1.095962524E-2,1.449965123E-2
3.885247920E-1,-2.222974598E-2,4.590913653E-3,-8.077621460E-3,2.409327838E-2
3.935452600E-1,-1.719297469E-2,-9.690072387E-3,-1.268482208E-2,2.346061791E-2
3.985657290E-1,-1.700304449E-2,-1.433083043E-2,-2.195072174E-2,3.124596626E-2
4.035861980E-1,-2.621302009E-2,-1.423956081E-2,-1.220321655E-2,3.223051362E-2
4.086066670E-1,-2.113237977E-2,-4.704806954E-3,-1.676082611E-2,2.737951744E-2
4.136271350E-1,-2.089977264E-2,-9.418901056E-3,2.363204956E-3,2.304562716E-2
4.186476040E-1,-1.589694619E-2,-1.407263801E-2,-7.118225098E-3,2.239243549E-2
4.236680730E-1,-2.519209683E-2,-1.394216344E-2,-1.175022125E-2,3.109812476E-2
4.286885420E-1,-1.551562548E-2,-1.864718646E-2,-2.142906189E-3,2.435249974E-2
4.337090100E-1,-5.912572145E-3,-1.378849521E-2,2.614021301E-3,1.522872999E-2
4.387294790E-1,-5.939230323E-3,-8.941113949E-3,-2.144813538E-3,1.094615003E-2
4.437499480E-1,-1.069577038E-2,-8.884254843E-3,7.343292236E-3,1.572429423E-2
4.487704170E-1,-1.066565514E-2,-8.830651641E-3,1.671695709E-2,2.170698649E-2
4.537908850E-1,-5.906790495E-3,6.307549775E-4,7.057189941E-3,9.224530105E-3
4.588113540E-1,-1.545156538E-2,5.696974695E-4,-7.217407227E-3,1.706359854E-2
4.638318230E-1,-1.074172556E-2,-4.222635180E-3,2.336502075E-3,1.177601622E-2
4.688522920E-1,-6.088137627E-3,-8.959826082E-3,2.313613892E-3,1.107685481E-2
4.738727600E-1,-2.042230964E-2,5.563236773E-4,-7.175445557E-3,2.165334260E-2
4.788932290E-1,-1.510336995E-3,-4.236362875E-3,-7.087707520E-3,8.394253161E-3
4.839136980E-1,-6.432384253E-3,4.934631288E-4,-1.647281647E-2,1.769103602E-2
4.889341670E-1,-1.830101013E-3,5.119074136E-3,-1.154899597E-2,1.276454064E-2
4.939546350E-1,2.773076296E-3,-4.461131990E-3,-1.141834259E-2,1.256861959E-2
4.989751040E-1,-1.167060435E-2,2.713277936E-4,-1.816749573E-3,1.181427965E-2
5.039955730E-1,2.513453364E-3,-9.260255843E-3,-1.793861389E-3,9.761543156E-3
5.090160420E-1,1.175740361E-2,-9.163625538E-3,-1.770019531E-3,1.501138041E-2
5.140365100E-1,-2.784326673E-3,-9.070266038E-3,1.246738434E-2,1.566709524E-2
5.190569790E-1,1.778915524E-3,-1.376793534E-2,2.864837646E-3,1.417490312E-2
5.240774480E-1,6.347343326E-3,-8.941821754E-3,1.231670380E-2,1.649078943E-2
5.290979170E-1,6.130009890E-3,-8.904226124E-3,1.219463348E-2,1.629636002E-2
5.341183850E-1,5.863755941E-3,-4.127897322E-3,7.336616516E-3,1.025909898E-2
5.391388540E-1,1.039275527E-2,5.496963859E-4,1.674842834E-2,1.971855421E-2
5.441593230E-1,1.018929482E-2,-9.044408798E-3,1.184463501E-2,1.805321129E-2
5.491797920E-1,1.467849314E-2,-1.854533702E-2,1.173210144E-2,2.640132365E-2
5.542002600E-1,1.443541050E-2,-1.373006031E-2,6.878852844E-3,2.107639079E-2
5.592207290E-1,1.893809438E-2,-1.359992847E-2,6.815910339E-3,2.429127635E-2
5.642411980E-1,1.391378045E-2,-1.821386814E-2,-1.221752167E-2,2.597318068E-2
5.692616670E-1,2.791106701E-2,-8.608046919E-3,-7.356643677E-3,3.012053020E-2
5.742821350E-1,2.285717428E-2,-8.580062538E-3,-7.286071777E-3,2.547851509E-2
5.793026040E-1,8.363708854E-3,9.362846613E-4,2.271652222E-3,8.717147387E-3
5.843230730E-1,1.303389668E-2,-3.869254142E-3,6.995201111E-3,1.529007616E-2
5.893435420E-1,3.428667784E-3,5.652531981E-3,-2.557754517E-3,7.088652110E-3
5.943640100E-1,-1.396313310E-3,1.498535275E-2,2.212524414E-3,1.521202657E-2
5.993844790E-1,8.058339357E-3,1.943982020E-2,-7.296562195E-3,2.227292667E-2
6.044049480E-1,1.273578405E-2,1.916222274E-2,-2.485275269E-3,2.314233284E-2
6.094254170E-1,-1.560553908E-3,4.701200873E-3,2.126789093E-2,2.183711984E-2
6.144458850E-1,3.202512860E-3,-4.990633577E-3,1.633739471E-2,1.738024678E-2
6.194663540E-1,-1.569479704E-3,-9.748481214E-3,3.043746948E-2,3.199899531E-2
6.244868230E-1,-1.553326845E-3,-2.239495516E-4,6.440162659E-3,6.628625254E-3
6.295072920E-1,-1.485571265E-3,-2.758018672E-4,-3.110885620E-3,3.458409750E-3
6.345277600E-1,-1.418486238E-3,-1.457173377E-2,-3.086090088E-3,1.496233539E-2
6.395482290E-1,-1.084908843E-2,-1.455592737E-2,1.687049866E-3,1.823249513E-2
6.445686980E-1,-1.075565815E-2,-1.448962465E-2,1.672744751E-3,1.812267860E-2
6.495891670E-1,-1.061142981E-2,4.623223096E-3,-7.839202881E-3,1.397961860E-2
6.546096350E-1,-1.052026451E-2,-1.446305960E-2,-1.252269745E-2,2.183286536E-2
6.596301040E-1,-1.523022354E-2,-2.389329113E-2,-7.667541504E-3,2.935370952E-2
6.646505730E-1,-1.035207510E-2,-1.430280134E-2,-2.659702301E-2,3.192392861E-2
6.696710420E-1,-1.026335359E-2,-1.428799331E-2,-1.687717438E-2,2.437872422E-2
6.746915100E-1,-1.967208087E-2,-9.474184364E-3,-2.490997314E-3,2.197625998E-2
6.797119790E-1,-2.420178056E-2,-9.450219572E-3,-2.470970154E-3,2.609863072E-2
6.847324480E-1,-1.444852352E-2,7.178634405E-5,-2.450942993E-3,1.465510514E-2
6.897529170E-1,-1.427325606E-2,-1.902966201E-2,2.317428589E-3,2.390030021E-2
6.947733850E-1,-1.895193756E-2,-4.731196910E-3,1.654529572E-2,2.559896427E-2
6.997938540E-1,-2.359163761E-2,-1.007467508E-4,2.115821838E-2,3.168983623E-2
7.048143230E-1,-2.349604666E-2,4.542969167E-3,6.739616394E-3,2.486212394E-2
7.098347920E-1,-1.865275204E-2,4.451356828E-3,-2.810478210E-3,1.938139634E-2
7.148552600E-1,-9.101316333E-3,9.109009057E-3,1.964569092E-3,1.302564919E-2
7.198757290E-1,-1.387524605E-2,4.232071340E-3,-2.797126770E-3,1.477351681E-2
7.248961980E-1,-9.163692594E-3,4.141822457E-3,-2.770423889E-3,1.043087742E-2
7.299166670E-1,-1.873716712E-2,-1.019194722E-2,-2.743721008E-3,2.150546965E-2
7.349371350E-1,-4.540234804E-3,-5.464129150E-3,-1.221179962E-2,1.412793295E-2
7.399576040E-1,-1.884862781E-2,-7.250756025E-4,-7.358551025E-3,2.024709307E-2
7.449780730E-1,-1.409591734E-2,8.672349155E-3,-2.545356750E-3,1.674465188E-2
7.499985420E-1,-1.882793009E-2,-1.044767722E-2,-2.521514893E-3,2.167955139E-2
7.550190100E-1,-9.379044175E-3,-1.991013438E-2,7.000923157E-3,2.309529921E-2
7.600394790E-1,-4.757076502E-3,-1.979797333E-2,1.169586182E-2,2.348153974E-2
7.650600000E-1,4.626706243E-3,-1.499010623E-2,2.104759216E-3,1.582844612E-2
7.700805210E-1,-3.131926060E-4,-1.022231206E-2,-1.215457916E-2,1.588482131E-2
7.751010420E-1,-5.150288343E-4,-1.024397835E-2,-7.299423218E-3,1.258911937E-2
7.801215620E-1,4.136770964E-3,-1.021236554E-2,7.009506226E-3,1.305903754E-2
7.851420830E-1,-5.547553301E-3,-5.432516336E-3,2.120018005E-2,2.257731640E-2
7.901626040E-1,-5.654171109E-3,-1.018950343E-2,1.152992249E-2,1.639313099E-2
7.951831250E-1,-5.759909749E-3,-1.015834883E-2,-2.807617188E-3,1.201046733E-2
8.002036460E-1,-1.116544008E-3,-1.967507973E-2,-7.529258728E-3,2.109609371E-2
8.052241670E-1,3.539979458E-3,-1.481514052E-2,-2.715110779E-3,1.547228715E-2
8.102446870E-1,1.290591061E-2,-5.245964974E-3,6.807327271E-3,1.550555971E-2
8.152652080E-1,7.896736264E-3,1.373922825E-2,6.753921509E-3,1.722615141E-2
8.202857290E-1,2.929583192E-3,-6.226524711E-4,1.953125000E-3,3.575591006E-3
8.253062500E-1,1.224958897E-2,-6.205998361E-4,1.940727234E-3,1.241789017E-2
8.303267710E-1,2.549514174E-3,4.079308361E-3,-7.569313049E-3,8.968571752E-3
8.353472920E-1,7.123917341E-3,-7.569417357E-4,1.994132996E-3,7.436378519E-3
8.403678120E-1,-7.281929255E-3,-8.043944836E-4,1.980781555E-3,7.589271356E-3
8.453883330E-1,-7.322251797E-3,-8.514523506E-4,1.967430115E-3,7.629621467E-3
8.504088540E-1,-2.614021301E-3,8.600123227E-3,6.702423096E-3,1.121239057E-2
8.554293750E-1,2.055540681E-3,-1.023545861E-3,1.139831543E-2,1.162731647E-2
8.604498960E-1,1.618318260E-2,-5.870394409E-3,1.130580902E-2,2.059558805E-2
8.654704170E-1,6.450608373E-3,-5.928348750E-3,1.121425629E-2,1.423078393E-2
8.704909370E-1,1.599222422E-3,-1.184206456E-3,1.112270355E-2,1.129930934E-2
8.755114580E-1,6.284981966E-3,3.521639854E-3,6.283760071E-3,9.559737768E-3
8.805319790E-1,1.568017900E-2,-1.555421948E-2,6.233215332E-3,2.294895925E-2
8.855525000E-1,6.003111601E-3,-1.072862372E-2,-1.755905151E-2,2.143504154E-2
8.905730210E-1,1.065216959E-2,-1.069173217E-2,-3.165245056E-3,1.542078564E-2
8.955935420E-1,1.016989350E-3,-1.158144325E-3,-3.136634827E-3,3.494859604E-3
9.006140620E-1,9.590983391E-4,-1.069801301E-2,-3.108978271E-3,1.118181997E-2
9.056345830E-1,9.535551071E-4,-1.546173915E-2,-3.082275391E-3,1.579477972E-2
9.106551040E-1,-8.549213409E-3,-1.190517098E-3,-2.679824829E-2,2.815408483E-2
9.156756250E-1,-8.475795388E-3,3.516633064E-3,-1.232910156E-2,1.536920821E-2
9.206960940E-1,-3.654211760E-3,-6.165906787E-3,2.019882202E-3,7.446582720E-3
9.257165620E-1,-1.311804354E-2,-1.471646130E-3,6.752967834E-3,1.482738626E-2
9.307370310E-1,-1.300598681E-2,7.983852178E-3,1.144504547E-2,1.907581333E-2
9.357575000E-1,1.350358129E-3,-1.632191241E-3,1.134967804E-2,1.154567915E-2
9.407779690E-1,-3.458529711E-3,-6.420854479E-3,1.125717163E-2,1.341315448E-2
9.457984370E-1,-1.772436500E-2,-1.591810957E-2,1.591396332E-2,2.864949485E-2
9.508189060E-1,-1.282571256E-2,-1.583797112E-2,1.535415649E-3,2.043765479E-2
9.558393750E-1,-1.276823878E-2,-6.209641695E-3,1.102066040E-2,1.797338386E-2
9.608598440E-1,-1.271097362E-2,-6.159793586E-3,6.181716919E-3,1.541835048E-2
9.658803120E-1,-2.209930122E-2,-1.361858100E-3,6.130218506E-3,2.297418879E-2
9.709007810E-1,-1.246699691E-2,-1.095439494E-2,-8.164405823E-3,1.849546709E-2
9.759212500E-1,-2.660585940E-2,-1.091687381E-2,1.400947571E-3,2.879257790E-2
9.809417190E-1,-2.163262665E-2,-6.132405251E-3,6.137847900E-3,2.330772634E-2
9.859621870E-1,-1.675270498E-2,-1.088481024E-2,-3.408432007E-3,2.026695899E-2
9.909826560E-1,-1.666195691E-2,-2.034610882E-2,-2.237224579E-2,3.452683498E-2
9.960031250E-1,-2.137260139E-2,-1.542995125E-2,-7.937431335E-3,2.752951692E-2
1.001023594E0,-1.654727757E-2,-2.010238916E-2,6.377220154E-3,2.680648022E-2
1.006044062E0,-2.265423536E-3,-1.523764431E-2,6.326675415E-3,1.665367136E-2
1.011064531E0,-7.096320391E-3,-1.046655327E-2,-3.220558167E-3,1.304908025E-2
1.016085000E0,-2.389684319E-3,-1.987822354E-2,-3.190994263E-3,2.027404268E-2
1.021105469E0,-1.676815748E-2,-5.520828068E-3,1.108455658E-2,2.084509637E-2
1.026125937E0,-1.672942936E-2,-8.319430053E-4,1.574325562E-2,2.298730157E-2
1.031146406E0,-2.445504069E-3,-1.037577912E-2,1.086616516E-2,1.522205071E-2
1.036166875E0,-1.202315092E-2,-1.514344290E-2,-3.466606140E-3,1.964427090E-2
1.041187344E0,-7.275432348E-3,-1.037438586E-2,1.313209534E-3,1.273908620E-2
1.046207812E0,-2.567589283E-3,8.653551340E-3,1.080226898E-2,1.407712615E-2
1.051228281E0,-7.395401597E-3,-1.022435725E-3,1.546382904E-2,1.717170196E-2
1.056248750E0,-7.486358285E-3,-1.068923622E-3,5.842208862E-3,9.556126960E-3
1.061269219E0,-7.576838136E-3,3.634713590E-3,-3.699302673E-3,9.181745982E-3
1.066289687E0,-1.236322522E-2,-1.197837293E-3,5.831718445E-3,1.372199301E-2
1.071310156E0,-2.864181995E-3,-1.241620630E-3,5.785942078E-3,6.574365826E-3
1.076330625E0,-2.941310406E-3,8.160088211E-3,5.740165710E-3,1.040133880E-2
1.081351094E0,-3.069669008E-3,-1.458678395E-3,1.519298553E-2,1.556847520E-2
1.086371562E0,-1.269398630E-2,-6.248794496E-3,8.249282837E-4,1.417269302E-2
1.091392031E0,-7.992848754E-3,-6.197370589E-3,1.031875610E-2,1.444886712E-2
1.096412500E0,-1.752425730E-2,-1.450993121E-3,1.023578644E-2,2.034640752E-2
1.101432969E0,-3.233447671E-3,-1.099092141E-2,6.561279297E-4,1.147545385E-2
1.106453437E0,1.441255212E-3,-6.205845624E-3,5.401611328E-3,8.352672712E-3
1.111473906E0,1.077307761E-2,-6.154779345E-3,1.010894775E-2,1.600410368E-2
1.116494375E0,1.033425331E-3,-1.565425843E-2,5.279541016E-3,1.655286465E-2
1.121514844E0,1.042078435E-2,-6.132449955E-3,1.473522186E-2,1.906112411E-2
1.126535312E0,1.503302157E-2,-6.133865565E-3,-4.379272461E-3,1.681648214E-2
1.131555781E0,-4.135370255E-3,-6.136521697E-3,9.904861450E-3,1.236383703E-2
1.136576250E0,1.479205489E-2,-1.093953475E-2,3.280639648E-4,1.840070473E-2
1.141596719E0,3.222823143E-4,-1.090214401E-2,3.280639648E-4,1.091183926E-2
1.146617187E0,-4.529908299E-3,-1.566543803E-2,9.824752808E-3,1.903816655E-2
1.151637656E0,1.553148031E-4,-1.084017009E-2,2.489089966E-4,1.084413970E-2
1.156658125E0,-9.340241551E-3,-1.306604594E-3,9.743690491E-3,1.356048790E-2
1.161678594E0,-1.406006515E-2,-1.084649563E-2,1.678466797E-4,1.775838033E-2
1.166699062E0,-9.244382381E-3,-1.560648903E-2,1.688003540E-4,1.813972434E-2
1.171719531E0,-9.216472507E-3,-1.083358750E-2,-4.579544067E-3,1.494263054E-2
1.176740000E0,-4.440024495E-3,-1.353204250E-3,9.705543518E-3,1.075837136E-2
1.181760469E0,-4.400283098E-3,-6.196077913E-3,4.877090454E-3,9.029943751E-3
1.186780937E0,3.354549408E-4,3.300033510E-3,-4.658699036E-3,5.718935905E-3
1.191801406E0,-9.161591530E-3,3.218755126E-3,4.877090454E-3,1.086651532E-2
1.196821875E0,-9.082794189E-3,3.139410168E-3,8.773803711E-5,9.610449753E-3
1.201842344E0,-4.255875945E-3,3.059472889E-3,-4.661560059E-3,7.014484771E-3
1.206862812E0,-1.371498406E-2,-1.767043024E-3,1.437091827E-2,1.994358345E-2
1.211883281E0,-1.359796524E-2,-6.554596126E-3,4.754066467E-3,1.582619781E-2
1.216903750E0,-1.348219812E-2,-1.135287806E-2,1.421260834E-2,2.264190235E-2
1.221924219E0,-1.816749573E-2,-6.615415215E-3,9.347915649E-3,2.147568733E-2
1.226944687E0,-1.801308990E-2,-1.136381552E-2,4.521369934E-3,2.177270072E-2
1.231965156E0,-2.260874212E-2,-6.522513926E-3,-2.651214600E-4,2.353229053E-2
1.236985625E0,-2.241788805E-2,-2.071430907E-2,-2.632141113E-4,3.052398379E-2
1.242006094E0,-1.273134351E-2,-1.109846681E-2,-2.613067627E-4,1.689175403E-2
1.247026562E0,-3.125488758E-3,-6.311248988E-3,4.488945007E-3,8.351716652E-3
1.252047031E0,-1.739411056E-2,-6.364304572E-3,-2.946853638E-4,1.852420833E-2
1.257067500E0,-2.209867537E-2,-1.616537571E-3,9.207725525E-3,2.399472559E-2
1.262087969E0,-2.671216428E-2,-6.457220763E-3,-3.643035889E-4,2.748396146E-2
1.267108437E0,-2.659085393E-2,-1.120444015E-2,-5.106925964E-3,2.930347564E-2
1.272128906E0,-3.116719425E-2,-6.415095180E-3,-3.137588501E-4,3.182209748E-2
1.277149375E0,-2.151121199E-2,-1.116515324E-2,-5.056381226E-3,2.475802656E-2
1.282169844E0,-2.618145943E-2,-1.112588122E-2,-5.011558533E-3,2.888545949E-2
1.287190312E0,-2.131579816E-2,-6.338432431E-3,4.529953003E-3,2.269492127E-2
1.292210781E0,-1.643881202E-2,-1.642752439E-3,-9.751319885E-3,1.918388427E-2
1.297231250E0,-6.906092167E-3,-1.123047248E-2,4.578590393E-3,1.395640036E-2
1.302251719E0,-1.169836521E-2,-1.744281501E-3,-2.050399780E-4,1.182946778E-2
1.307272187E0,-7.005527616E-3,-1.602777466E-2,9.297370911E-3,1.980929286E-2
1.312292656E0,-2.351835370E-3,-6.449740380E-3,-2.737045288E-4,6.870603667E-3
1.317313125E0,-7.130458951E-3,-1.698777080E-3,-2.698898315E-4,7.334993452E-3
1.322333594E0,-2.423837781E-3,-1.789022237E-3,-2.651214600E-4,3.024215525E-3
1.327354062E0,-1.680205762E-2,-1.931637526E-3,9.239196777E-3,1.927182194E-2
1.332374531E0,-1.681493223E-2,2.727307379E-3,-3.309249878E-4,1.703788903E-2
1.337395000E0,2.166017890E-3,-2.096444368E-3,-5.072593689E-3,5.900671082E-3
1.342415469E0,-2.805575728E-3,2.616994083E-3,-5.024909973E-3,6.322154177E-3
1.347435937E0,-1.243239641E-2,-6.954342127E-3,-9.727478027E-3,1.724967199E-2
1.352456406E0,-1.717858016E-2,-1.174929366E-2,-1.468658447E-4,2.081276261E-2
1.357476875E0,-7.639423013E-3,-2.311900258E-3,-1.430511475E-4,7.982864799E-3
1.362497344E0,1.820221543E-3,2.350211143E-3,1.410675049E-2,1.441655674E-2
1.367517812E0,-7.792949677E-3,-1.202052459E-2,1.399230957E-2,2.002517923E-2
1.372538281E0,-3.132417798E-3,-2.147112414E-2,9.131431580E-3,2.354154319E-2
1.377558750E0,-1.275622845E-2,2.396527678E-3,9.058952332E-3,1.582811822E-2
1.382579219E0,-1.280310750E-2,-2.476342022E-3,-5.092620850E-4,1.305033254E-2
1.387599687E0,-1.279743016E-2,-7.309861481E-3,4.246711731E-3,1.533762870E-2
1.392620156E0,-1.279179752E-2,-2.554219216E-3,-1.003170013E-2,1.645567158E-2
1.397640625E0,1.459300518E-3,-7.335212082E-3,-4.482269287E-4,7.492382910E-3
1.402661094E0,-3.402367234E-3,-7.327858359E-3,-5.189895630E-3,9.602532352E-3
1.407681562E0,-3.474727273E-3,-7.373694330E-3,-5.144119263E-3,9.638830878E-3
1.412702031E0,-3.598377109E-3,6.878230721E-3,9.147644043E-3,1.199740669E-2
1.417722500E0,-1.791520417E-2,6.768386811E-3,1.382255554E-2,2.361839626E-2
1.422742969E0,-3.570124507E-3,1.140920445E-2,-5.359649658E-4,1.196674533E-2
1.427763437E0,-3.641963005E-3,1.713976264E-3,1.371669769E-2,1.429508324E-2
1.432783906E0,-8.461698890E-3,-7.848583162E-3,8.856773376E-3,1.454795657E-2
1.437804375E0,1.056075096E-3,-7.834456861E-3,-5.460739136E-3,9.608000876E-3
1.442824844E0,-1.799617708E-2,-1.257020235E-2,-1.965904236E-2,2.946778449E-2
1.447845312E0,-1.789535582E-2,-1.262298226E-2,4.249572754E-3,2.230789792E-2
1.452865781E0,-1.304687560E-2,-1.737193763E-2,-5.321502686E-4,2.173219648E-2
1.457886250E0,-3.490582108E-3,-7.782697678E-3,-5.274772644E-3,1.002884704E-2
1.462906719E0,5.934476852E-3,-3.023114055E-3,-9.976387024E-3,1.199522956E-2
1.467927187E0,-8.409321308E-3,-7.801447064E-3,4.354476929E-3,1.226950408E-2
1.472947656E0,-3.588303924E-3,-3.092333674E-3,1.381587982E-2,1.460537531E-2
1.477968125E0,-3.556534648E-3,-3.220349550E-3,2.319908142E-2,2.369001833E-2
1.482988594E0,-3.576338291E-3,-8.046422154E-3,4.014015198E-3,9.677159865E-3
1.488009062E0,1.539829373E-2,-1.753014326E-2,8.730888367E-3,2.491268320E-2
1.493029531E0,9.750425816E-4,-7.939588279E-3,3.911972046E-3,8.904565984E-3
1.498050000E0,-8.527636528E-3,-1.742295176E-2,8.627891541E-3,2.123017534E-2
1.503070469E0,-1.325482130E-2,-7.883921266E-3,-9.393692017E-4,1.545085489E-2
1.508090937E0,-8.445277810E-3,-7.870748639E-3,3.818511963E-3,1.215945867E-2
1.513111406E0,-3.675848246E-3,-1.260618865E-2,3.788948059E-3,1.366689358E-2
1.518131875E0,-3.694370389E-3,-7.806412876E-3,-9.889602661E-4,8.692899227E-3
1.523152344E0,-1.320974529E-2,-7.795136422E-3,3.769874573E-3,1.579472940E-2
1.528172812E0,-3.652080894E-3,-3.086082637E-3,-1.008033752E-3,4.886484722E-3
1.533193281E0,-3.671094775E-3,-7.913276553E-3,3.750801086E-3,9.495545874E-3
1.538213750E0,-8.438140154E-3,-3.204487264E-3,-5.775451660E-3,1.071572628E-2
1.543234219E0,-1.316490769E-2,-1.273106784E-2,-1.047420502E-2,2.109748453E-2
1.548254687E0,-8.407413960E-3,-3.234874457E-3,-5.635261536E-3,1.062568562E-2
1.553275156E0,-1.793541014E-2,-1.275869831E-2,-8.373260498E-4,2.202644852E-2
1.558295625E0,-1.308690012E-2,-3.259778023E-3,3.919601440E-3,1.404479914E-2
1.563316094E0,-8.278459311E-3,-1.283527538E-2,3.889083862E-3,1.576077904E-2
1.568336562E0,-1.295556128E-2,-3.283835948E-3,8.605003357E-3,1.589579282E-2
1.573357031E0,-8.148223162E-3,6.186749786E-3,8.535385132E-3,1.332374621E-2
1.578377500E0,-1.293016970E-2,-8.214715868E-3,-1.029968262E-3,1.535355594E-2
1.583397969E0,-1.292344928E-2,-1.300042123E-2,-1.051521301E-2,2.113282276E-2
1.588418437E0,-2.236188948E-2,-1.774623618E-2,-9.288787842E-4,2.856301482E-2
1.593438906E0,-2.232843637E-2,-1.295550913E-2,-9.164810181E-4,2.583107092E-2
1.598459375E0,-1.274611056E-2,-1.765106246E-2,1.333904266E-2,2.553337814E-2
1.603479844E0,-7.940515876E-3,-1.755774766E-2,-1.015663147E-3,1.929657656E-2
1.608500312E0,-1.747268438E-2,-1.271546632E-2,8.492469788E-3,2.321852335E-2
1.613520781E0,-3.182888031E-3,-1.751428843E-2,3.677368164E-3,1.817702153E-2
1.618541302E0,-1.275499165E-2,-1.747149974E-2,8.398056030E-3,2.320496629E-2
1.623561823E0,1.495495439E-3,-1.262994111E-2,-1.166343689E-3,1.277154167E-2
1.628582344E0,-8.114993572E-3,-1.263035089E-2,-1.153945923E-3,1.505690790E-2
1.633602864E0,-1.294881105E-2,-7.882256061E-3,8.357048035E-3,1.731016812E-2
1.638623385E0,-8.245587349E-3,-3.120601177E-3,-1.205444336E-3,8.898368305E-3
1.643643906E0,1.219093800E-3,-3.148376942E-3,-1.192092896E-3,3.580440271E-3
1.648664427E0,5.804523826E-3,-3.175921738E-3,-1.178741455E-3,6.720744538E-3
1.653684948E0,-3.945633769E-3,-7.951740175E-3,8.334159851E-3,1.217605922E-2
1.658705469E0,-4.013776779E-3,-7.887374610E-3,-1.229286194E-3,8.934888181E-3
1.663725989E0,-1.357838511E-2,-1.267580688E-2,-1.215934753E-3,1.861523891E-2
1.668746510E0,-1.351468265E-2,-7.926084101E-3,3.544807434E-3,1.606347148E-2
1.673767031E0,-8.702978492E-3,1.584433019E-3,8.265495300E-3,1.210663765E-2
1.678787552E0,-8.783370256E-3,-1.277993619E-2,3.453254700E-3,1.588708061E-2
1.683808073E0,-1.355972886E-2,-7.978715003E-3,-6.070137024E-3,1.686335386E-2
1.688828594E0,-1.354806125E-2,-7.964756340E-3,3.479957581E-3,1.609650310E-2
1.693849114E0,7.093250751E-4,-1.275254786E-2,3.454208374E-3,1.323110632E-2
1.698869635E0,-4.146113992E-3,-2.224893868E-2,8.176803589E-3,2.406378296E-2
1.703890156E0,-8.961081505E-3,-1.742069423E-2,-1.088237762E-2,2.240999134E-2
1.708910677E0,-4.238933325E-3,-1.738118753E-2,-1.292228699E-3,1.793722639E-2
1.713931198E0,-1.374977827E-2,-1.259351522E-2,1.771450043E-2,2.571879767E-2
1.718951719E0,-4.239499569E-3,-3.044094890E-3,1.282119751E-2,1.384279509E-2
1.723972239E0,-1.375062764E-2,-7.819760591E-3,1.271629333E-2,2.029612111E-2
1.728992760E0,-4.188463092E-3,-7.859013975E-3,7.863998413E-3,1.188064791E-2
1.734013281E0,4.938989878E-4,-3.098804504E-3,7.801055908E-3,8.408507528E-3
1.739033802E0,3.884583712E-4,-3.125511110E-3,-1.758575439E-3,3.607257571E-3
1.744054323E0,9.780883789E-3,-1.270088553E-2,7.756233215E-3,1.780835014E-2
1.749074844E0,9.650230408E-3,-1.270071417E-2,1.244163513E-2,2.022941848E-2
1.754095364E0,2.367794514E-5,-7.952041924E-3,7.591247559E-3,1.099375145E-2
1.759115885E0,2.650916576E-5,-3.244202584E-3,1.227760315E-2,1.269901934E-2
1.764136354E0,-9.519264102E-3,-1.271858811E-2,2.678871155E-3,1.611071765E-2
1.769156823E0,4.808276892E-3,1.579113305E-3,1.215362549E-2,1.316524736E-2
1.774177292E0,-4.778221250E-3,-3.235071898E-3,1.205444336E-2,1.336438151E-2
1.779197760E0,-4.787549376E-3,1.486595720E-3,7.206916809E-3,8.778966099E-3
1.784218229E0,-9.545296431E-3,-3.328077495E-3,7.148742676E-3,1.238116738E-2
1.789238698E0,-9.514898062E-3,-1.765152067E-2,7.091522217E-3,2.126967688E-2
1.794259167E0,-4.788160324E-3,1.383893192E-3,2.286911011E-3,5.483757984E-3
1.799279635E0,-1.909510791E-2,-3.428667784E-3,1.651573181E-2,2.547838900E-2
1.804300104E0,-9.487807751E-3,-1.295214891E-2,6.882667542E-3,1.746847932E-2
1.809320573E0,-1.420612633E-2,-8.254535496E-3,-2.669334412E-3,1.664562188E-2
1.814341042E0,-1.888538897E-2,1.205574721E-3,2.102851868E-3,1.904030759E-2
1.819361510E0,-4.583537579E-3,-8.355263621E-3,6.836891174E-3,1.172869677E-2
1.824381979E0,-9.342983365E-3,-3.642816097E-3,2.033233643E-3,1.023208123E-2
1.829402448E0,-1.881130040E-2,1.030355692E-3,-7.478713989E-3,2.026962798E-2
1.834422917E0,-1.870368421E-2,-8.580908179E-3,-7.414817810E-3,2.187325562E-2
1.839443385E0,-1.390007138E-2,-8.616331965E-3,2.146720886E-3,1.649428906E-2
1.844463854E0,-2.338257432E-2,-8.545175195E-3,6.879806519E-3,2.582821207E-2
1.849484323E0,-1.374016702E-2,-1.797161251E-2,2.075195312E-3,2.271733879E-2
1.854504792E0,-1.852709055E-2,1.066468656E-3,-7.433891296E-3,1.999132761E-2
1.859525260E0,-1.377713680E-2,-1.329359785E-2,-2.618789673E-3,1.932323217E-2
1.864545729E0,-9.014844894E-3,-1.798510551E-2,2.154350281E-3,2.023296009E-2
1.869566198E0,-4.291981459E-3,-1.319366321E-2,-2.609252930E-3,1.411743796E-2
1.874586667E0,-4.408851266E-3,1.054853201E-3,2.165794373E-3,5.024077032E-3
1.879607135E0,-9.273529053E-3,5.688887089E-3,6.900787354E-3,1.288342515E-2
1.884627604E0,1.481175423E-4,-8.710950613E-3,-2.649307251E-3,9.106120376E-3
1.889648073E0,-1.419936121E-2,7.517077029E-4,-7.372856140E-3,1.601705125E-2
1.894668542E0,-9.433552623E-3,-8.857231587E-3,2.188682556E-3,1.312374938E-2
1.899689010E0,-4.707485437E-3,-4.088710994E-3,2.173423767E-3,6.603161940E-3
1.904709479E0,-9.569972754E-3,-1.365606487E-2,-7.336616516E-3,1.821807970E-2
1.909729948E0,-1.914016902E-2,-1.364794374E-2,-1.201915741E-2,2.640213217E-2
1.914750417E0,-1.438510418E-2,-8.839495480E-3,7.079124451E-3,1.830797383E-2
1.919770885E0,-1.436626911E-2,-8.819621056E-3,7.022857666E-3,1.826187103E-2
1.924791354E0,-9.599074721E-3,6.970837712E-4,2.218246460E-3,9.876678523E-3
1.929811823E0,-9.620130062E-3,-1.835651323E-2,-1.204299927E-2,2.396961226E-2
1.934832292E0,-1.443177462E-4,-1.350757852E-2,-7.191658020E-3,1.530344570E-2
1.939852760E0,-4.992648959E-3,-1.819729805E-2,-2.380371094E-3,1.901931562E-2
1.944873229E0,-5.052387714E-3,8.958093822E-4,1.188755035E-2,1.294770055E-2
1.949893698E0,-9.859517217E-3,-3.967083991E-3,7.042884827E-3,1.274951222E-2
1.954914167E0,-5.129903555E-3,7.087923586E-4,-1.200675964E-2,1.307595405E-2
1.959934635E0,-9.936988354E-3,-8.898533881E-3,7.090568542E-3,1.510641602E-2
1.964955104E0,-5.207031965E-3,-1.367730275E-2,2.285957336E-3,1.481240674E-2
1.969975573E0,8.928626776E-3,-8.867353201E-3,2.270698547E-3,1.278696214E-2
1.974996042E0,-5.492314696E-3,-4.098743200E-3,7.002830505E-3,9.798206552E-3
1.980016510E0,-7.987916470E-4,-1.361664385E-2,2.199172974E-3,1.381620134E-2
1.985036979E0,-8.925795555E-4,-8.810982108E-3,6.932258606E-3,1.124661342E-2
1.990057448E0,-9.342879057E-4,-1.359173656E-2,2.127647400E-3,1.378894775E-2
1.995077917E0,-9.756535292E-4,-2.302926406E-2,-2.636909485E-3,2.320026282E-2
2.000098385E0,3.680527210E-3,-3.899663687E-3,-2.612113953E-3,5.964628800E-3
2.005118854E0,-5.948185921E-3,8.275322616E-4,-2.587318420E-3,6.539108655E-3
2.010139323E0,-5.999669433E-3,5.515344441E-3,2.185821533E-3,8.437586940E-3
2.015159792E0,-5.998820066E-3,-4.133295268E-3,-7.327079773E-3,1.033228290E-2
2.020180260E0,-1.249775290E-3,5.452260375E-4,-7.264137268E-3,7.391001283E-3
2.025200729E0,-1.340404153E-3,-4.313495010E-3,2.296447754E-3,5.067207789E-3
2.030221198E0,-6.126880646E-3,-1.862873137E-2,-7.217407227E-3,2.089639361E-2
2.035241667E0,-1.557010412E-2,-1.857917383E-2,-7.156372070E-3,2.527503717E-2
2.040262135E0,-1.548919082E-2,-1.378278807E-2,-1.184368134E-2,2.387787819E-2
2.045282604E0,-1.540865004E-2,-8.975740522E-3,-2.245903015E-3,1.797316039E-2
2.050303073E0,-5.832374096E-3,-9.006619453E-3,-1.172256470E-2,1.589195723E-2
2.055323542E0,-1.058200002E-2,4.622787237E-4,-6.874084473E-3,1.262717163E-2
2.060344010E0,-1.054325700E-2,-1.389148831E-2,7.431030273E-3,1.895663279E-2
2.065364479E0,-1.050454378E-2,-1.382951438E-2,-2.125740051E-3,1.749627614E-2
2.070384948E0,-1.051832736E-2,-8.966408670E-3,7.391929626E-3,1.567393755E-2
2.075405417E0,-5.783230066E-3,-8.945476264E-3,-2.163887024E-3,1.086966893E-2
2.080425885E0,-1.533339918E-2,-4.123069346E-3,-6.891250610E-3,1.730901979E-2
2.085446354E0,-5.809932947E-3,-8.889742196E-3,-2.082824707E-3,1.082224542E-2
2.090466823E0,-1.055915654E-2,-1.841833815E-2,-2.063751221E-3,2.133049545E-2
2.095487292E0,-1.052030921E-2,-1.837052405E-2,-2.044677734E-3,2.126813971E-2
2.100507760E0,-5.733594298E-3,-4.076346755E-3,7.471084595E-3,1.026195944E-2
2.105528229E0,-5.787134171E-3,-8.843407035E-3,1.216030121E-2,1.611116679E-2
2.110548698E0,-2.013735473E-2,-1.362389326E-2,7.315635681E-3,2.538980206E-2
2.115569167E0,-2.007028461E-2,-1.356541365E-2,2.509117126E-3,2.435431051E-2
2.120589635E0,-1.045516133E-2,7.393434644E-4,-1.175498962E-2,1.574918437E-2
2.125610104E0,-1.521760225E-2,-4.069101065E-3,-6.905555725E-3,1.719940992E-2
2.130630573E0,-2.943730354E-2,-8.837483823E-3,-6.845474243E-3,3.148835464E-2
2.135651042E0,-1.509973407E-2,6.806328893E-4,2.712249756E-3,1.535648165E-2
2.140671510E0,-1.982343197E-2,6.211735308E-4,7.440567017E-3,2.118292589E-2
2.145691979E0,-1.495918632E-2,-8.933532983E-3,2.632141113E-3,1.762139136E-2
2.150712448E0,-1.493555307E-2,-1.366137713E-2,2.613067627E-3,2.040911789E-2
2.155732917E0,-1.021549106E-2,5.922950804E-4,1.209259033E-2,1.584101676E-2
2.160753385E0,-7.344186306E-4,-4.266809672E-3,-2.250671387E-3,4.879606254E-3
2.165773854E0,-5.577534437E-3,4.621930420E-4,2.519607544E-3,6.137665271E-3
2.170794323E0,-5.631789565E-3,-9.145591408E-3,-2.246856689E-3,1.097302424E-2
2.175814792E0,-5.737468600E-3,-9.176310152E-3,1.677036285E-2,1.995916542E-2
2.180835260E0,-1.528772712E-2,-1.395401731E-2,7.136344910E-3,2.189421426E-2
2.185855729E0,-1.520948112E-2,-4.446405917E-3,2.329826355E-3,1.601645817E-2
2.190876198E0,3.758653998E-3,-4.568174481E-3,-7.182121277E-3,9.304760287E-3
2.195896667E0,-1.122191548E-3,-1.418467984E-2,-2.369880676E-3,1.442500573E-2
2.200917135E0,-1.076273620E-2,-4.623260349E-3,-7.094383240E-3,1.369457193E-2
2.205937604E0,-1.077438891E-2,-4.585374147E-3,-2.284049988E-3,1.193021361E-2
2.210958073E0,-1.073405147E-2,-1.409669593E-2,-2.263069153E-3,1.786219972E-2
2.215978542E0,-5.997151136E-3,-4.587896168E-3,-1.648712158E-2,1.813394031E-2
2.220999010E0,-1.559710503E-2,-9.403843433E-3,7.397651672E-3,1.965775182E-2
2.226019479E0,-1.374840736E-3,-4.629503936E-3,7.339477539E-3,8.785808118E-3
2.231039948E0,-6.264790893E-3,-9.393218905E-3,2.533912659E-3,1.157155477E-2
2.236060417E0,-1.106241345E-2,1.295283437E-4,2.515792847E-3,1.134561513E-2
2.241080885E0,-2.051638067E-2,-4.725724459E-3,-6.999969482E-3,2.218679608E-2
2.246101354E0,-1.569794118E-2,-4.792019725E-3,1.205539703E-2,2.036470987E-2
2.251121823E0,-1.091933250E-2,-9.555641562E-3,-2.287864685E-3,1.468933058E-2
2.256142292E0,-6.180286407E-3,4.661288112E-3,2.482414246E-3,8.129325152E-3
2.261162760E0,-6.177917123E-3,-1.922573149E-2,-2.285003662E-3,2.032281115E-2
2.266183229E0,-6.175562739E-3,-9.674195200E-3,7.232666016E-3,1.356610060E-2
2.271203698E0,-1.425042748E-3,-1.444649324E-2,1.192283630E-2,1.878525856E-2
2.276224167E0,-1.095989347E-2,-1.437737048E-2,2.327919006E-3,1.822765079E-2
2.281244635E0,-2.041502297E-2,-4.813082516E-3,2.310752869E-3,2.110162328E-2
2.286265104E0,-6.048828363E-3,-4.825502634E-3,-2.454757690E-3,8.117859050E-3
2.291285573E0,8.250102401E-3,-1.437366009E-4,1.656055450E-2,1.850234621E-2
2.296306042E0,8.080318570E-3,-4.944831133E-3,6.928443909E-3,1.173653433E-2
2.301326510E0,-1.097856462E-2,-9.652771056E-3,2.121925354E-3,1.477184611E-2
2.306346979E0,-6.136149168E-3,-1.442525163E-2,1.635074615E-2,2.265142625E-2
2.311367448E0,-1.563149691E-2,-4.964344203E-3,1.146793365E-2,2.001254385E-2
2.316387917E0,-1.555098593E-2,-2.776384354E-4,1.876831055E-3,1.566629316E-2
2.321408385E0,-1.077421010E-2,-9.876742959E-3,-2.884864807E-3,1.489819115E-2
2.326428854E0,-6.037265062E-3,-4.018619657E-4,1.890182495E-3,6.338994584E-3
2.331449323E0,-1.558531821E-2,-5.199540406E-3,6.626129150E-3,1.771561322E-2
2.336469792E0,-2.030527592E-2,-4.602484405E-4,1.132202148E-2,2.325304774E-2
2.341490260E0,-2.498529851E-2,-5.259964615E-3,6.482124329E-3,2.634293654E-2
2.346510729E0,-1.538082957E-2,-5.323078483E-3,-3.066062927E-3,1.656218056E-2
2.351531198E0,-1.055358350E-2,-1.482825726E-2,6.458282471E-3,1.931229532E-2
2.356551667E0,-1.051509380E-2,-5.260214210E-3,1.657485962E-3,1.187368144E-2
2.361572135E0,-2.002583444E-2,-1.481781155E-2,-7.850646973E-3,2.611961413E-2
2.366592604E0,-1.521179080E-2,-1.005024835E-2,1.714706421E-3,1.831246268E-2
2.371613073E0,-1.038534939E-2,-5.273044109E-3,1.702308655E-3,1.177108028E-2
2.376633542E0,-7.990598679E-4,-1.008328795E-2,1.688957214E-3,1.025493877E-2
2.381654010E0,-5.642548203E-3,-5.353920162E-3,1.117515564E-2,1.361568635E-2
2.386674479E0,-1.519389451E-2,-5.614534020E-4,-3.160476685E-3,1.552927149E-2
2.391694948E0,-1.986522973E-2,-1.010630652E-2,-3.131866455E-3,2.250718488E-2
2.396715417E0,-1.500034332E-2,-1.007587835E-2,-7.852554321E-3,1.970269610E-2
2.401735885E0,-1.017567515E-2,-5.246572196E-3,1.710891724E-3,1.157575203E-2
2.406756354E0,-5.443111062E-3,-1.470302045E-2,-7.797241211E-3,1.751008963E-2
2.411776823E0,-7.506012917E-4,-9.884528816E-3,1.767158508E-3,1.006926817E-2
2.416797292E0,-1.034237444E-2,-1.460445300E-2,1.125240326E-2,2.113933148E-2
2.421817760E0,3.888562322E-3,-9.841192514E-3,-3.084182739E-3,1.102189504E-2
2.426838229E0,-1.523919404E-2,-2.410910651E-2,-3.055572510E-3,2.868481436E-2
2.431858698E0,-1.521323621E-2,-2.396198735E-2,-1.252460480E-2,3.102394428E-2
2.436879167E0,-1.518748701E-2,-7.359683514E-5,-7.668495178E-3,1.701384719E-2
2.441899635E0,-1.516225934E-2,-9.622514248E-3,-2.853393555E-3,1.818319949E-2
2.446920104E0,-1.033684611E-2,-4.794467241E-3,-1.232528687E-2,1.678541033E-2
2.451940573E0,-1.979686320E-2,-5.980953574E-5,-7.472038269E-3,2.116012111E-2
2.456961042E0,-1.028777659E-2,-4.861596972E-3,-2.657890320E-3,1.168494130E-2
2.461981510E0,-1.035495102E-2,-4.874873906E-3,-7.380485535E-3,1.361840567E-2
2.467001979E0,-1.036968827E-2,4.557069391E-3,2.181053162E-3,1.153491696E-2
2.472022448E0,-1.038400829E-2,-9.833343327E-3,2.165794373E-3,1.446419491E-2
2.477042917E0,-1.519922912E-2,-3.588199615E-4,-2.595901489E-3,1.542348930E-2
2.482063385E0,-1.517359912E-2,-1.470701024E-2,2.177238464E-3,2.124322546E-2
2.487083854E0,-1.045154035E-2,-1.463824511E-2,-7.333755493E-3,1.942413152E-2
2.492104323E0,-5.716979504E-3,-5.021154881E-3,-1.676654816E-2,1.841230534E-2
2.497124792E0,-5.770072341E-3,-2.339817584E-4,-1.187515259E-2,1.320483742E-2
2.502145260E0,-1.057121158E-2,-9.835965931E-3,-7.024765015E-3,1.605752358E-2
2.507165729E0,-1.058414578E-2,-1.455629244E-2,2.533912659E-3,1.817499670E-2
2.512186198E0,-1.534520090E-2,-1.449004188E-2,-6.980895996E-3,2.222992157E-2
2.517206667E0,-5.821034312E-3,-1.788437366E-4,-1.166820526E-2,1.304083738E-2
2.522227135E0,-1.537056267E-2,-9.728144854E-3,-6.819725037E-3,1.942677659E-2
2.527247604E0,-1.059496403E-2,-1.450125501E-2,7.485389709E-3,1.945689386E-2
2.532268073E0,-5.911082029E-3,-2.405866981E-4,1.217651367E-2,1.353758686E-2
2.537288542E0,-1.214355230E-3,4.404243082E-3,7.328987122E-3,8.636322596E-3
2.542309010E0,-1.253366470E-3,-5.385242403E-4,7.269859314E-3,7.396741871E-3
2.547329479E0,-1.078875363E-2,-5.389470607E-3,2.462387085E-3,1.230881588E-2
2.552349948E0,3.445610404E-3,-1.964385062E-2,2.444267273E-3,2.009297243E-2
2.557370417E0,8.064359426E-3,-1.008883119E-2,2.427101135E-3,1.314188828E-2
2.562390885E0,-1.548677683E-3,-1.005981117E-2,7.157325745E-3,1.244289015E-2
2.567411354E0,-1.583012938E-2,-5.282532424E-3,-1.664257050E-2,2.356848103E-2
2.572431823E0,-1.579955220E-2,-1.483993232E-2,-1.175212860E-2,2.465688479E-2
2.577452292E0,-1.096849144E-2,-1.951855421E-2,-2.155303955E-3,2.249282325E-2
2.582472760E0,-6.177425385E-3,-9.913954884E-3,2.613067627E-3,1.196976225E-2
2.587493229E0,-6.174474955E-3,-1.938465238E-2,-2.155303955E-3,2.045810900E-2
2.592513698E0,-1.371771097E-3,-1.927690580E-2,7.359504700E-3,2.067953488E-2
2.597534167E0,-6.157666445E-3,-1.442282647E-2,-6.945610046E-3,1.715156781E-2
2.602554635E0,-1.090429723E-2,-1.915554702E-2,-2.137184143E-3,2.214511765E-2
2.607575104E0,-1.566296816E-2,-9.552709758E-3,2.632141113E-3,1.853404980E-2
2.612595573E0,-6.084263325E-3,2.072751522E-5,7.359504700E-3,9.548874240E-3
2.617616042E0,-1.333907247E-3,-3.449618816E-5,1.679706573E-2,1.684998267E-2
2.622636510E0,-1.081734896E-2,-1.433223858E-2,-2.336502075E-3,1.810765980E-2
2.627656979E0,-1.072476804E-2,-2.376233041E-2,-7.065773010E-3,2.701100043E-2
2.632677448E0,-1.543365419E-2,-9.421963245E-3,-2.256393433E-3,1.822257897E-2
2.637697917E0,-1.540638506E-2,-9.447861463E-3,7.262229919E-3,1.947713455E-2
2.642718385E0,-5.882620811E-3,-1.422078535E-2,-7.040977478E-3,1.692369131E-2
2.647738854E0,-1.063123345E-2,-4.710949957E-3,7.265090942E-3,1.371122608E-2
2.652759323E0,-1.064337790E-2,-4.622973502E-3,7.206916809E-3,1.365990582E-2
2.657779792E0,-1.060381532E-2,1.621395350E-4,7.147789001E-3,1.278898261E-2
2.662800260E0,-1.531310380E-2,-4.641499370E-3,1.183891296E-2,1.990463575E-2
2.667820729E0,-9.891092777E-4,-1.900588349E-2,1.649093628E-2,2.518239313E-2
2.672841198E0,-5.830392241E-3,-1.420468837E-2,6.859779358E-3,1.681734873E-2
2.677861667E0,-1.082450151E-3,-4.694990814E-3,6.804466248E-3,8.337589459E-3
2.682882135E0,-1.541997492E-2,-1.305714250E-5,-1.224327087E-2,1.968942556E-2
2.687902604E0,-2.014100552E-2,-4.867125303E-3,-7.390022278E-3,2.199912365E-2
2.692923073E0,-1.527379453E-2,-9.628865868E-3,1.166725159E-2,2.149717695E-2
2.697943542E0,-1.049901545E-2,-4.905801266E-3,1.632118225E-2,2.001692288E-2
2.702964010E0,-9.636878967E-4,-9.719103575E-3,6.690025330E-3,1.183833213E-2
2.707984479E0,-1.055367291E-2,-5.047179759E-3,1.889228821E-3,1.185003042E-2
2.713004948E0,-1.526339352E-2,-1.455591619E-2,1.874923706E-3,2.117454171E-2
2.718025417E0,-1.998542249E-2,-1.448967308E-2,1.135921478E-2,2.717350729E-2
2.723045885E0,-1.517140865E-2,-4.925712943E-3,1.770019531E-3,1.604890207E-2
2.728066354E0,-1.034560800E-2,-4.938457161E-3,1.757621765E-3,1.159781006E-2
2.733086823E0,-1.036041975E-2,-4.951097071E-3,-3.003120422E-3,1.186888335E-2
2.738107292E0,-8.784383535E-4,-2.138763666E-4,1.772880554E-3,1.990101128E-3
2.743127760E0,-1.041756570E-2,-1.451012865E-2,-7.737159729E-3,1.946620531E-2
2.748148281E0,-1.518030465E-2,-9.694501758E-3,-7.669448853E-3,1.957665598E-2
2.753168802E0,-5.657806993E-3,-1.705065370E-4,-7.602691650E-3,9.478437254E-3
2.758189323E0,-5.763903260E-3,-2.401600778E-2,1.145935059E-2,2.722697057E-2
2.763209844E0,-5.816906691E-3,-1.442455873E-2,1.136684418E-2,1.926420111E-2
2.768230364E0,-1.056607068E-2,-4.913035780E-3,1.776695251E-3,1.178712926E-2
2.773250885E0,-1.527599990E-2,-9.725023061E-3,6.512641907E-3,1.924439532E-2
2.778271406E0,-1.524972916E-2,-9.697772563E-3,1.712799072E-3,1.815309100E-2
2.783291927E0,-9.781569242E-4,-1.441925392E-2,-1.254367828E-2,1.913675885E-2
2.788312448E0,-1.070737839E-3,-4.857141525E-3,-7.687568665E-3,9.156255527E-3
2.793332969E0,-5.859762430E-3,-4.869196564E-3,6.624221802E-3,1.009585090E-2
2.798353489E0,-5.860388279E-3,4.563957453E-3,-1.242351532E-2,1.447472250E-2
2.803374010E0,-5.860403180E-3,-5.026128143E-3,-7.569313049E-3,1.081206685E-2
2.808394531E0,-5.912601948E-3,-1.928354055E-2,-2.755165100E-3,2.035693328E-2
2.813415052E0,-1.066067815E-2,-1.917789876E-2,6.766319275E-3,2.296137923E-2
2.818435573E0,-1.542139053E-2,-4.826378077E-3,2.095794678E-2,2.646410294E-2
2.823456094E0,-1.539361477E-2,-9.589716792E-3,6.540298462E-3,1.927956296E-2
2.828476614E0,-5.869343877E-3,-1.431209967E-2,-3.007888794E-3,1.575857828E-2
2.833497135E0,-1.066966355E-2,-1.894449443E-2,1.768112183E-3,2.181425704E-2
2.838517656E0,-5.933284760E-3,-4.594918340E-3,-1.248931885E-2,1.457052600E-2
2.843538177E0,3.511816263E-3,-4.609160125E-3,-7.634162903E-3,9.584239863E-3
2.848558698E0,3.381520510E-3,-1.417344064E-2,-7.567405701E-3,1.641909649E-2
2.853579219E0,-1.574170589E-2,-9.412512183E-3,-2.753257751E-3,1.854662013E-2
2.858599739E0,-1.571126282E-2,-1.413763687E-2,2.020835876E-3,2.123205909E-2
2.863620260E0,-6.184056401E-3,-2.357187495E-2,1.150417328E-2,2.694850357E-2
2.868640781E0,3.263428807E-3,-1.868073642E-2,-2.834320068E-3,1.917428620E-2
2.873661302E0,-1.591071486E-2,-9.133748710E-3,-7.554054260E-3,1.984036161E-2
2.878681823E0,-6.382450461E-3,-4.361663014E-3,-1.223659515E-2,1.447390891E-2
2.883702292E0,-1.592762768E-2,-1.392674074E-2,-7.383346558E-3,2.240886515E-2
2.888722760E0,-6.399214268E-3,-1.391510293E-2,-1.681613922E-2,2.274560553E-2
2.893743229E0,-6.395325065E-3,-1.385167241E-2,-2.429008484E-3,1.544891884E-2
2.898763698E0,-1.119185984E-2,-2.333765849E-2,-2.406120300E-3,2.599410406E-2
2.903784167E0,-1.119932532E-2,-2.325012162E-2,7.113456726E-3,2.676927922E-2
2.908804635E0,-1.110355556E-2,-1.836039498E-2,1.180267334E-2,2.448869429E-2
2.913825104E0,-1.106017828E-2,-8.764188737E-3,2.209663391E-3,1.428359759E-2
2.918845573E0,-6.216779351E-3,7.520504296E-4,-1.205444336E-2,1.358394383E-2
2.923866042E0,-6.265714765E-3,6.388388574E-4,-7.203102112E-3,9.568279711E-3
2.928886510E0,-6.262645125E-3,-4.168771207E-3,2.355575562E-3,7.883407485E-3
2.933906979E0,-6.259605289E-3,-4.187822342E-3,2.337455750E-3,7.885696781E-3
2.938927448E0,-6.308183074E-3,5.237128586E-3,1.181793213E-2,1.438347000E-2
2.943947917E0,-6.356656551E-3,-4.409193993E-3,2.224922180E-3,8.049742411E-3
2.948968385E0,-6.300956011E-3,2.703629434E-4,2.207756042E-3,6.682015378E-3
2.953988854E0,-1.579461992E-2,-9.334567934E-3,-2.556800842E-3,1.852407643E-2
2.959009323E0,-2.046093345E-2,-9.309306741E-3,6.963729858E-3,2.353309421E-2
2.964029792E0,-1.084254682E-2,-1.883440837E-2,2.159118652E-3,2.183935790E-2
2.969050260E0,-1.074945927E-2,-1.873125136E-2,-7.355690002E-3,2.281483788E-2
2.974070729E0,-5.960538983E-3,-1.388045773E-2,-7.292747498E-3,1.677436430E-2
2.979091198E0,-1.545703411E-2,-1.381858066E-2,-2.481460571E-3,2.088134865E-2
2.984111667E0,-1.068104804E-2,-4.258949310E-3,7.039070129E-3,1.348228262E-2
2.989132135E0,-1.069338620E-2,-4.327874631E-3,-2.513885498E-3,1.180671959E-2
2.994152604E0,-5.904927850E-3,4.028938711E-4,-1.198768616E-2,1.336918531E-2
2.999173073E0,-5.956456065E-3,-1.390101761E-2,-2.388000488E-3,1.531078723E-2
3.004193542E0,-1.075635850E-2,-9.090464562E-3,-2.365112305E-3,1.428039042E-2
3.009214010E0,-1.076777279E-2,-1.861738786E-2,-7.091522217E-3,2.264600956E-2
3.014234479E0,-1.552760601E-2,-1.381942630E-2,-2.281188965E-3,2.091140633E-2
3.019254948E0,-1.549924910E-2,-1.375805587E-2,-1.175594330E-2,2.382672925E-2
3.024275417E0,-5.973786116E-3,-1.375034451E-2,-1.165485382E-2,1.898930521E-2
3.029295885E0,-1.072165370E-2,-8.889161050E-3,-2.059936523E-3,1.407886291E-2
3.034316354E0,-5.984842777E-3,-8.868876845E-3,2.708435059E-3,1.103679936E-2
3.039336823E0,-1.078417897E-2,-1.359852403E-2,7.436752319E-3,1.888183405E-2
3.044357292E0,-1.247063279E-3,-8.787963539E-3,-2.120018005E-3,9.125675117E-3
3.049377760E0,-1.078340411E-2,-8.765995502E-3,-1.159763336E-2,1.810054090E-2
3.054398229E0,-6.046369672E-3,-4.048854113E-3,-1.624679565E-2,1.780197109E-2
3.059418698E0,-1.559433341E-2,-8.816141635E-3,-1.863479614E-3,1.801055646E-2
3.064439167E0,-6.068393588E-3,-4.047963768E-3,7.652282715E-3,1.057207842E-2
3.069459635E0,-6.118848920E-3,-8.816525340E-3,1.708793640E-2,2.017842912E-2
3.074480104E0,-1.566620171E-2,-8.795581758E-3,1.219940186E-2,2.171675713E-2
3.079500573E0,-1.558539271E-2,-1.827054843E-2,2.602577209E-3,2.415555452E-2
3.084521042E0,-1.550495625E-2,-3.925319761E-3,-1.166248322E-2,1.979457800E-2
3.089541510E0,-1.078015566E-2,-1.349529251E-2,1.218223572E-2,2.113626133E-2
3.094561979E0,-2.028867602E-2,-1.348724589E-2,2.586364746E-3,2.449949916E-2
3.099582448E0,-1.542025805E-2,-1.348052919E-2,7.315635681E-3,2.174919656E-2
3.104602917E0,-5.895465612E-3,-8.726626635E-3,-6.987571716E-3,1.263869794E-2
3.109623385E0,-1.198887825E-3,-8.759580553E-3,2.570152283E-3,9.207239881E-3
3.114643854E0,-6.038740277E-3,-1.348761469E-2,-1.169395447E-2,1.884491192E-2
3.119664323E0,-1.289069653E-3,-8.680507541E-3,-2.098083496E-3,9.023018679E-3
3.124684792E0,-6.127849221E-3,-3.913458437E-3,7.419586182E-3,1.038826030E-2
3.129705260E0,-6.178125739E-3,5.563624203E-3,2.612113953E-3,8.714716933E-3
3.134725729E0,-6.227985024E-3,-4.084151238E-3,-2.155303955E-3,7.753284719E-3
3.139746198E0,-1.097372174E-2,-8.852411062E-3,-2.135276794E-3,1.425998448E-2
3.144766667E0,-1.093171537E-2,-8.779283613E-3,-1.161384583E-2,1.820603297E-2
3.149787135E0,-1.563858986E-2,-1.345526800E-2,-2.101325989E-2,2.944769636E-2
3.154807604E0,-1.555770636E-2,-8.699048311E-3,-1.842498779E-3,1.791955553E-2
3.159828073E0,-1.283869147E-3,-3.930579871E-3,-1.824378967E-3,4.519528374E-3
3.164848542E0,-1.081900299E-2,-8.753262460E-3,2.941131592E-3,1.422394757E-2
3.169869010E0,-1.077738404E-2,-4.040013999E-3,1.241588593E-2,1.693008988E-2
3.174889479E0,-5.988225341E-3,-4.060138017E-3,7.565498352E-3,1.046806232E-2
3.179909948E0,-5.935281515E-3,-1.352647692E-2,2.754211426E-3,1.502593841E-2
3.184930417E0,-1.068314910E-2,-3.919918090E-3,7.480621338E-3,1.361819107E-2
3.189950885E0,-1.064327359E-2,-1.343804970E-2,7.420539856E-3,1.867953062E-2
3.194971354E0,-5.854934454E-3,-1.338111609E-2,2.612113953E-3,1.483771090E-2
3.199991823E0,-1.530042291E-2,-1.812377945E-2,2.591133118E-3,2.385976306E-2
3.205012292E0,-1.522235572E-2,-8.580163121E-3,-6.925582886E-3,1.879635633E-2
3.210032760E0,-1.044800878E-2,-3.813948482E-3,-2.116203308E-3,1.132189944E-2
3.215053229E0,-1.515860856E-2,-1.338484511E-2,-1.159381866E-2,2.330995760E-2
3.220073698E0,-1.508143544E-2,-8.630473167E-3,-1.997947693E-3,1.749075633E-2
3.225094167E0,-1.975399256E-2,-1.815870404E-2,-6.728172302E-3,2.766273770E-2
3.230114635E0,-1.494219899E-2,-1.336330175E-2,2.827644348E-3,2.024457253E-2
3.235135104E0,-1.011830568E-2,8.878894150E-4,2.805709839E-3,1.053757397E-2
3.240155573E0,-1.483166218E-2,-3.973674029E-3,7.533073425E-3,1.710308403E-2
3.245176042E0,-1.006115973E-2,7.047802210E-4,7.472991943E-3,1.255265943E-2
3.250196510E0,-5.330443382E-3,-8.901249617E-3,1.691055298E-2,1.983967423E-2
3.255216979E0,-1.013585925E-2,-4.131101072E-3,1.202392578E-2,1.625965652E-2
3.260237448E0,-1.964946091E-2,-1.359558478E-2,-2.319335938E-3,2.400667738E-2
3.265257917E0,4.155457020E-3,-1.348293573E-2,-7.045745850E-3,1.577022236E-2
3.270278385E0,-7.290095091E-4,-1.811971888E-2,2.512931824E-3,1.830766215E-2
3.275298854E0,-1.501789689E-2,-1.796936244E-2,-7.003784180E-3,2.444357188E-2
3.280319323E0,-5.444869399E-3,-1.312490925E-2,-2.195358276E-3,1.437808901E-2
3.285339792E0,-1.499755681E-2,-8.320819587E-3,-2.174377441E-3,1.728845470E-2
3.290360260E0,-5.476310849E-3,-3.558024764E-3,1.209163666E-2,1.374253244E-2
3.295380729E0,4.017174244E-3,1.114446670E-3,-7.000923157E-3,8.148165765E-3
3.300401198E0,-5.562439561E-3,-3.697123379E-3,-2.192497253E-3,7.029687002E-3
3.305421667E0,-5.564942956E-3,-1.796686277E-2,2.575874329E-3,1.898451675E-2
3.310442135E0,-1.031620800E-2,-8.373927325E-3,2.555847168E-3,1.353067482E-2
3.315462604E0,-1.027938724E-2,-1.310643554E-2,2.536773682E-3,1.684872918E-2
3.320483073E0,-1.499198377E-2,1.197014004E-3,7.266044617E-3,1.670292861E-2
3.325503542E0,-1.011578739E-2,-1.311225072E-2,7.205963135E-3,1.806062507E-2
3.330524010E0,-1.482915878E-2,-8.308269083E-3,2.399444580E-3,1.716649701E-2
3.335544479E0,-1.475472748E-2,-3.544319421E-3,1.187801361E-2,1.927047977E-2
3.340564948E0,-5.184188485E-3,-8.315820247E-3,-7.212638855E-3,1.216761422E-2
3.345585417E0,-9.990230203E-3,-3.553066403E-3,-7.149696350E-3,1.278855497E-2
3.350605885E0,-1.955692470E-2,5.867868662E-3,-7.085800171E-3,2.161281450E-2
3.355626354E0,-5.249768496E-3,-3.730561584E-3,2.472877502E-3,6.898715977E-3
3.360646823E0,-5.588680506E-4,-1.324900985E-2,-2.293586731E-3,1.345767943E-2
3.365667292E0,-5.404040217E-3,-1.319113374E-2,-7.019996643E-3,1.588993432E-2
3.370687760E0,-6.599575281E-4,-1.318562403E-2,-2.211570740E-3,1.338608495E-2
3.375708229E0,-1.494912803E-2,-1.792991161E-2,2.556800842E-3,2.348393898E-2
3.380728698E0,-1.017737389E-2,-1.788491383E-2,-2.210617065E-3,2.069627768E-2
3.385749167E0,-5.393221974E-3,-3.596045077E-3,2.557754517E-3,6.968535831E-3
3.390769635E0,-5.449324846E-3,-1.791725308E-2,1.203632355E-2,2.226198966E-2
3.395790104E0,4.043921828E-3,-8.324731141E-3,-2.307891846E-3,9.538386504E-3
3.400810573E0,-5.535915494E-3,-1.310953498E-2,-2.286911011E-3,1.441305761E-2
3.405831042E0,-1.978445053E-2,-3.660842776E-3,-1.176261902E-2,2.330633946E-2
3.410851510E0,-1.966872811E-2,-3.736007959E-3,-6.914138794E-3,2.118069726E-2
3.415871979E0,-1.955397427E-2,-3.810547292E-3,-6.855010986E-3,2.106820723E-2
3.420892448E0,-1.463979483E-2,-2.767884918E-2,7.448196411E-3,3.218567871E-2
3.425912917E0,-5.069926381E-3,-8.559867740E-3,-6.857872009E-3,1.208329002E-2
3.430933385E0,-9.825617075E-3,-3.792565316E-3,2.697944641E-3,1.087222185E-2
3.435953854E0,-1.454170048E-2,-8.561994880E-3,-2.071380615E-3,1.700174776E-2
3.440974323E0,-2.757310867E-4,-2.279119194E-2,-6.799697876E-3,2.378550711E-2
3.445994792E0,4.425913095E-3,-1.795843244E-2,-1.148986816E-2,2.177409178E-2
3.451015260E0,-4.601925611E-4,-1.786382124E-2,-1.139163971E-2,2.119191690E-2
3.456035729E0,-1.955081522E-2,-1.297087967E-2,-6.545066833E-3,2.435807865E-2
3.461056198E0,-1.948921382E-2,-8.166816086E-3,-1.739501953E-3,2.120264624E-2
3.466076667E0,-5.182310939E-3,-1.290104538E-2,-1.596736908E-2,2.117191994E-2
3.471097135E0,-9.988650680E-3,-1.759581640E-2,-1.108264923E-2,2.306969899E-2
3.476117604E0,-5.206361413E-3,-3.308095038E-3,-1.098823547E-2,1.260123053E-2
3.481138073E0,-9.909316897E-3,6.113320589E-3,-6.147384644E-3,1.316653288E-2
3.486158542E0,-9.824305773E-3,-8.235652000E-3,-6.095886230E-3,1.419516737E-2
3.491179010E0,-2.942979336E-4,-2.246756479E-2,-1.295089722E-3,2.250678423E-2
3.496199479E0,-3.409981728E-4,-8.192379028E-3,-1.282691956E-3,8.299195897E-3
3.501219948E0,-5.187675357E-3,6.015729159E-3,-2.026271820E-2,2.176416141E-2
3.506240417E0,-9.942680597E-3,-8.331168443E-3,-5.846023560E-3,1.422818529E-2
3.511260885E0,-9.961441159E-3,5.880616605E-3,-5.794525146E-3,1.293787012E-2
3.516281354E0,-9.979754686E-3,1.082461327E-3,1.799869537E-2,2.060874235E-2
3.521301823E0,4.247575998E-3,-3.727577627E-3,-1.142501831E-3,5.765591666E-3
3.526322292E0,-1.963165402E-2,-1.324604452E-2,8.366584778E-3,2.511691215E-2
3.531342760E0,-1.951749623E-2,-8.439682424E-3,-5.947113037E-3,2.208006005E-2
3.536363229E0,-1.945617795E-2,1.127000898E-3,-1.064300537E-2,2.220555234E-2
3.541383698E0,-1.464657485E-2,1.011945307E-3,-5.803108215E-3,1.578677463E-2
3.546404167E0,-1.937404275E-2,-1.809614524E-2,-1.049995422E-2,2.851443571E-2
3.551424635E0,-5.068108439E-3,-1.325063035E-2,-1.040935516E-2,1.759601099E-2
3.556445104E0,-5.126908422E-3,1.051511616E-3,3.925323486E-3,6.542096844E-3
3.561465573E0,-9.934008121E-3,-3.810148686E-3,3.895759583E-3,1.133043217E-2
3.566486042E0,-5.203753710E-3,-3.832180053E-3,-8.821487427E-4,6.522487488E-3
3.571506510E0,-2.420325577E-2,5.641713738E-3,-1.037025452E-2,2.692895658E-2
3.576526979E0,-9.857073426E-3,-4.007957876E-3,-7.839202881E-4,1.066959015E-2
3.581547448E0,-9.876251221E-3,-4.078961909E-3,8.722305298E-3,1.379336355E-2
3.586567917E0,-9.894981980E-3,-1.364763454E-2,-1.034164429E-2,1.977670861E-2
3.591588385E0,-1.466207206E-2,-4.090677947E-3,-1.500129700E-2,2.137168489E-2
3.596608854E0,-5.195766687E-3,-4.110369831E-3,-6.265640259E-4,6.654600972E-3
3.601629323E0,-5.571693182E-4,-4.128642380E-3,8.879661560E-3,9.808390030E-3
3.606649792E0,-5.350172520E-3,-8.948400617E-3,-6.895065308E-4,1.044861899E-2
3.611670260E0,-1.010292768E-2,-8.980751038E-3,-6.818771362E-4,1.353469591E-2
3.616690729E0,-1.481640339E-2,5.373060703E-4,-5.422592163E-3,1.578667200E-2
3.621711198E0,-5.297526717E-3,-9.015433490E-3,-6.256103516E-4,1.047536246E-2
3.626731667E0,-5.302533507E-3,-4.297457635E-3,-6.189346313E-4,6.853326477E-3
3.631752135E0,-5.359366536E-3,4.330687225E-4,-5.359649658E-3,7.591851068E-3
3.636772604E0,-1.491303742E-2,-9.120058268E-3,1.368141174E-2,2.219808945E-2
3.641793073E0,-1.008968055E-2,5.097042769E-3,-5.424499512E-3,1.253820935E-2
3.646813542E0,-1.485514641E-2,-9.296588600E-3,-6.275177002E-4,1.753555568E-2
3.651834010E0,-1.008413732E-2,-9.323514998E-3,-5.368232727E-3,1.474570039E-2
3.656854479E0,-1.010140777E-2,-9.350217879E-3,-5.722045898E-4,1.377651739E-2
3.661874948E0,-1.011854410E-2,1.721754670E-4,-1.006126404E-2,1.427037537E-2
3.666895417E0,-5.387037992E-3,-9.378779680E-3,-4.777908325E-4,1.082635537E-2
3.671915885E0,-6.427913904E-4,-4.605896771E-3,4.276275635E-3,6.317752697E-3
3.676936354E0,-5.486935377E-3,7.532536983E-5,4.243850708E-3,6.937031251E-3
3.681956823E0,-5.438461900E-3,2.091750503E-5,8.956909180E-3,1.047871783E-2
3.686977292E0,-1.019108295E-2,-9.528778493E-3,-5.361557007E-3,1.494664126E-2
3.691997760E0,-1.020716131E-2,-9.503152221E-3,-5.655288696E-4,1.395764547E-2
3.697018229E0,-1.497162879E-2,-1.422624290E-2,1.368713379E-2,2.477646639E-2
3.702038698E0,-1.014778018E-2,-9.463585913E-3,1.357460022E-2,1.941150875E-2
3.707059167E0,-6.147623062E-4,-4.692520946E-3,-7.820129395E-4,4.796793696E-3
3.712079635E0,-6.065964699E-4,-9.456958622E-3,-5.523681641E-3,1.096873213E-2
3.717100104E0,4.046544433E-3,-9.538207203E-3,-5.474090576E-3,1.171825866E-2
3.722120573E0,-5.584865808E-3,-6.864219904E-5,-6.771087646E-4,5.626181132E-3
3.727141042E0,-1.513634622E-2,-4.870347679E-3,-1.491451263E-2,2.180073280E-2
3.732161510E0,-5.614191294E-3,-9.683918208E-3,-5.290031433E-3,1.238070468E-2
3.737181979E0,-8.680373430E-4,-1.440550014E-2,-5.244255066E-3,1.535493844E-2
3.742202448E0,3.786981106E-3,-9.591992944E-3,-5.197525024E-3,1.154823887E-2
3.747222917E0,-1.533930004E-2,-1.431560144E-2,-9.900093079E-3,2.320005201E-2
3.752243385E0,-1.056425273E-2,-1.899731904E-2,-9.815216064E-3,2.385036757E-2
3.757263854E0,-5.828425288E-3,-1.414555311E-2,-2.336502075E-4,1.530103940E-2
3.762284323E0,-5.880862474E-3,-9.332951158E-3,4.519462585E-3,1.192116030E-2
3.767304792E0,-5.880996585E-3,-4.560455680E-3,4.483222961E-3,8.688104797E-3
3.772325260E0,-1.543001831E-2,9.617384523E-3,-2.994537354E-4,1.818431254E-2
3.777345729E0,-2.015092969E-2,9.483460337E-3,1.395130157E-2,2.627993156E-2
3.782366198E0,-5.838796496E-3,-4.945456982E-3,4.341125488E-3,8.797412107E-3
3.787386667E0,-5.787387490E-3,4.538971931E-3,-5.191802979E-3,9.002829462E-3
3.792407135E0,-2.478230000E-2,-5.101509392E-3,-3.976821899E-4,2.530505764E-2
3.797427604E0,-1.037940383E-2,-9.913153946E-3,9.104728699E-3,1.699702120E-2
3.802448073E0,3.903135657E-3,-9.883061051E-3,1.852798462E-2,2.135873540E-2
3.807468542E0,-1.042431593E-2,-9.905096143E-3,-6.189346313E-4,1.439306681E-2
3.812489010E0,-1.043875515E-2,-9.978827089E-3,4.138946533E-3,1.502249905E-2
3.817509479E0,-1.040120423E-2,-5.199689418E-3,-6.418228149E-4,1.164619062E-2
3.822529948E0,-1.036396623E-2,-1.945438236E-2,-6.341934204E-4,2.205191580E-2
3.827550417E0,-1.037859917E-2,-4.039220512E-4,-6.256103516E-4,1.040528049E-2
3.832570885E0,-1.039342582E-2,-9.950075299E-3,-1.011466980E-2,1.758788913E-2
3.837591354E0,-1.990546286E-2,-1.936353743E-2,-5.302429199E-4,2.777508220E-2
3.842611823E0,-1.034356654E-2,-5.062330514E-3,-1.476860046E-2,1.872773661E-2
3.847632292E0,-5.610182881E-3,-5.176413804E-3,-3.967285156E-4,7.643742889E-3
3.852652760E0,-1.041324437E-2,-4.891790450E-4,-5.139350891E-3,1.162273126E-2
3.857673229E0,-5.679279566E-3,-5.894936621E-4,9.151458740E-3,1.078660819E-2
3.862693698E0,-5.732953548E-3,-1.493573934E-2,1.382637024E-2,2.114501312E-2
3.867714167E0,-1.037999988E-3,-1.966416463E-2,-5.311965942E-4,1.969870515E-2
3.872734635E0,-5.878850818E-3,-1.485745981E-2,-5.272865295E-3,1.682581670E-2
3.877755104E0,-1.073154807E-2,-5.341038108E-3,-5.224227905E-3,1.307613740E-2
3.882775573E0,-2.029232681E-2,-1.484605297E-2,-4.281997681E-4,2.514691176E-2
3.887796042E0,-1.230522990E-3,-1.007822901E-2,-9.919166565E-3,1.419418022E-2
3.892816510E0,-1.076669991E-2,-6.016381085E-4,-9.834289551E-3,1.459441833E-2
3.897836979E0,-6.029799581E-3,4.099361598E-3,-5.001068115E-3,8.841602275E-3
3.902857448E0,-1.383945346E-3,-7.370822132E-4,4.541397095E-3,4.804464849E-3
3.907877917E0,-6.169751287E-3,-5.534481257E-3,4.505157471E-3,9.433597276E-3
3.912898385E0,-6.115585566E-3,-1.034251973E-2,-2.803802490E-4,1.201859868E-2
3.917918854E0,-1.086224616E-2,-5.561608821E-3,9.221076965E-3,1.529536350E-2
3.922939323E0,-1.082117856E-2,-5.567777902E-3,-3.509521484E-4,1.217461390E-2
3.927959792E0,-6.083816290E-3,-1.512278244E-2,-3.452301025E-4,1.630431088E-2
3.932980260E0,-6.134122610E-3,-1.510242000E-2,9.157180786E-3,1.869664435E-2
3.938000729E0,3.312990069E-3,-1.033372432E-2,4.335403442E-3,1.168578130E-2
3.943021198E0,-1.106110215E-2,-8.043907583E-4,4.302024841E-3,1.189547994E-2
3.948041667E0,-1.581816375E-2,-5.601231009E-3,-4.796981812E-4,1.678744184E-2
3.953062135E0,-1.578734815E-2,-1.515721902E-2,-9.969711304E-3,2.404946556E-2
3.958082604E0,-2.050527930E-2,-1.508469135E-2,4.362106323E-3,2.582716329E-2
3.963103073E0,-1.093809307E-2,-5.517024547E-3,9.077072144E-3,1.524705475E-2
3.968123542E0,-2.044527233E-2,-1.507245004E-2,4.256248474E-3,2.575468039E-2
3.973144010E0,-1.382499933E-3,-5.501095206E-3,-5.245208740E-4,5.696356438E-3
3.978164479E0,-1.420423388E-3,-1.025627181E-2,-1.001548767E-2,1.440550962E-2
3.983184948E0,-6.258085370E-3,-1.027646288E-2,-9.929656982E-3,1.560023749E-2
3.988205417E0,-1.558437943E-3,-1.979348436E-2,-1.459217072E-2,2.464025564E-2
3.993225885E0,-1.646444201E-3,-5.436819047E-3,-4.970550537E-3,7.548254931E-3
3.998246354E0,-1.123102009E-2,-1.029628143E-2,-4.925727844E-3,1.601287040E-2
4.003266823E0,-1.598694921E-2,-5.567632616E-3,9.363174438E-3,1.934554505E-2
4.008287292E0,-1.120619476E-2,-1.037539542E-2,-2.088546753E-4,1.527322007E-2
4.013307760E0,-2.071082592E-2,-1.514309272E-2,1.878929138E-2,3.180077103E-2
4.018328229E0,-1.114220917E-2,-5.573675036E-3,9.138107300E-3,1.545055610E-2
4.023348698E0,-1.115067303E-2,-5.579743534E-3,-9.929656982E-3,1.593954625E-2
4.028369167E0,-6.410568953E-3,-5.533888936E-3,-3.471374512E-4,8.475837744E-3
4.033389635E0,-6.458148360E-3,-1.023818180E-2,-9.838104248E-3,1.559860064E-2
4.038410104E0,-1.120166481E-2,-5.459405482E-3,-2.574920654E-4,1.246389605E-2
4.043430573E0,-6.408661604E-3,-5.468953401E-3,9.243965149E-3,1.250724936E-2
4.048451042E0,-6.456255913E-3,-7.286630571E-4,1.866722107E-2,1.976560985E-2
4.053471510E0,-1.600047946E-2,-1.032524928E-2,4.268646240E-3,1.951531338E-2
4.058491979E0,-1.116806269E-2,-7.947236300E-4,-1.001071930E-2,1.501904493E-2
4.063512448E0,3.121659160E-3,-1.514052600E-2,4.320144653E-3,1.605129070E-2
4.068532917E0,-1.594720781E-2,-1.032089815E-2,-4.625320435E-4,1.900127131E-2
4.073553385E0,-1.586315036E-2,-2.928393148E-2,-1.470184326E-2,3.640511472E-2
4.078573854E0,-1.578009129E-2,-2.434518188E-2,-5.080223083E-3,2.945348585E-2
4.083594323E0,-1.574958861E-2,-1.944758371E-2,-2.861022949E-4,2.502678381E-2
4.088614792E0,-1.097112894E-2,-9.789165109E-3,4.467964172E-3,1.536737218E-2
4.093635260E0,-6.232202053E-3,-9.761370718E-3,9.181976318E-3,1.477949221E-2
4.098655729E0,-1.103007793E-2,-9.732544422E-3,9.108543396E-3,1.730175144E-2
4.103676198E0,-6.290659308E-3,-1.925409585E-2,9.035110474E-3,2.217940087E-2
4.108696667E0,-1.103617251E-2,-9.701043367E-3,1.845836639E-2,2.359276660E-2
4.113717135E0,-1.579372585E-2,-9.725864977E-3,-6.866455078E-4,1.856086495E-2
4.118737604E0,-1.517906785E-3,-9.697336704E-3,-5.426406860E-3,1.121553706E-2
4.123758073E0,-1.105108857E-2,-1.436819881E-2,4.117012024E-3,1.858820819E-2
4.128778542E0,-1.575665176E-2,-4.805244505E-3,8.832931519E-3,1.869179308E-2
4.133799010E0,-1.567478478E-2,-9.618103504E-3,4.013061523E-3,1.882316274E-2
4.138819479E0,-1.089665294E-2,-9.643614292E-3,8.730888367E-3,1.696952426E-2
4.143839948E0,-1.410186291E-3,-1.916464791E-2,-8.363723755E-4,1.923465293E-2
4.148860417E0,-1.104861498E-2,-9.612344205E-3,8.672714233E-3,1.702013591E-2
4.153880885E0,-6.309375167E-3,-4.888139665E-3,3.854751587E-3,8.863477544E-3
4.158901354E0,-6.306245923E-3,-1.444881037E-2,-1.042079926E-2,1.889788125E-2
4.163921823E0,-1.110351086E-2,-4.883918911E-3,-1.507949829E-2,1.935282630E-2
4.168942292E0,-2.060870826E-2,-9.646769613E-3,-7.057189941E-4,2.276569919E-2
4.173962760E0,-1.098878682E-2,-1.244284213E-4,8.798599243E-3,1.407779339E-2
4.178983229E0,-1.094605029E-2,-4.978813231E-3,3.978729248E-3,1.266628929E-2
4.184003698E0,-2.040098608E-2,-2.944916487E-4,3.947257996E-3,2.078142930E-2
4.189024167E0,-1.078309119E-2,-5.146194249E-3,1.341342926E-2,1.796325292E-2
4.194044635E0,-1.549088955E-2,-9.853716940E-3,-5.691528320E-3,1.922126144E-2
4.199065104E0,-5.965799093E-3,-5.025006831E-3,-1.038932800E-2,1.299151988E-2
4.204085573E0,-5.965217948E-3,-5.036916584E-3,-8.039474487E-4,7.848610408E-3
4.209106042E0,-6.016835570E-3,-9.795967489E-3,-7.944107056E-4,1.152364429E-2
4.214126510E0,-6.015822291E-3,-9.716238827E-3,-1.978111267E-2,2.284486448E-2
4.219146979E0,-1.076363027E-2,-9.687792510E-3,-1.486587524E-2,2.075339266E-2
4.224167448E0,-1.226380467E-3,-4.911076277E-3,-4.949569702E-4,5.086026116E-3
4.229187917E0,-6.013795733E-3,-4.923932254E-3,4.259109497E-3,8.862892399E-3
4.234208385E0,-6.064996123E-3,-1.443242282E-2,-5.216598511E-4,1.566368843E-2
4.239228854E0,-1.081238687E-2,-1.911316440E-2,8.981704712E-3,2.372534052E-2
4.244249323E0,-1.552025974E-2,-1.905828342E-2,-5.336761475E-3,2.515109644E-2
4.249269792E0,-1.069153845E-2,-4.707746208E-3,4.206657410E-3,1.241643409E-2
4.254290260E0,-5.954653025E-3,-4.775434732E-3,-5.741119385E-4,7.654559037E-3
4.259310729E0,-6.057918072E-3,-4.789423198E-3,-1.006221771E-2,1.268405185E-2
4.264331198E0,-1.359939575E-3,-4.803292453E-3,-9.975433350E-3,1.115483413E-2
4.269351667E0,-6.198108196E-3,-1.911442354E-2,-5.141258240E-3,2.074151077E-2
4.274372135E0,-6.195589900E-3,-9.511917830E-3,4.400253296E-3,1.217473384E-2
4.279392604E0,-1.094129682E-2,-4.739195108E-3,-3.833770752E-4,1.192974955E-2
4.284413073E0,-1.402571797E-3,-1.424922422E-2,-1.462364197E-2,2.046603290E-2
4.289433542E0,-1.573801041E-2,-1.412985846E-2,-5.002021790E-3,2.173380072E-2
4.294454010E0,-2.045667171E-2,-4.515748471E-3,-2.088546753E-4,2.095020339E-2
4.299474479E0,-1.089020073E-2,-9.280402213E-3,-2.040863037E-4,1.430957681E-2
4.304494948E0,-6.203845143E-3,-1.400534809E-2,-9.696006775E-3,1.812870699E-2
4.309515417E0,-6.253451109E-3,-1.868965104E-2,-4.863739014E-3,2.029937595E-2
4.314535885E0,-2.054786682E-2,-4.342183471E-3,-4.820823669E-3,2.154784743E-2
4.319556354E0,-1.483634114E-3,4.405900836E-4,4.718780518E-3,4.966103038E-3
4.324576823E0,-1.576623321E-2,-9.216345847E-3,-9.564399719E-3,2.061535550E-2
4.329597292E0,-1.438483596E-3,-4.444822669E-3,-4.734039307E-3,6.651075986E-3
4.334617760E0,-1.097263396E-2,-9.210065007E-3,-4.693031311E-3,1.507476488E-2
4.339638229E0,-6.129965186E-3,-9.187094867E-3,-9.402275085E-3,1.450454970E-2
4.344658698E0,-1.087619364E-2,-1.396594942E-2,1.745223999E-4,1.770225379E-2
4.349679167E0,-1.558321714E-2,-9.206715971E-3,1.745223999E-4,1.810057274E-2
4.354699635E0,-1.075395942E-2,-1.398414746E-2,1.745223999E-4,1.764183895E-2
4.359720104E0,-1.546169817E-2,-1.397452503E-2,-4.573822021E-3,2.133708762E-2
4.364740573E0,-2.013048530E-2,-9.215220809E-3,-9.282112122E-3,2.400654782E-2
4.369761042E0,-2.481223643E-2,-9.244076908E-3,2.946853638E-4,2.647993342E-2
4.374781510E0,-1.520949602E-2,-1.396932080E-2,1.454067230E-2,2.525671879E-2
4.379801979E0,-8.866637945E-4,-9.156920016E-3,4.924774170E-3,1.043497760E-2
4.384822448E0,-1.042540371E-2,-4.385884851E-3,-9.360313416E-3,1.468129748E-2
4.389842917E0,-1.513618231E-2,-4.403110594E-3,-4.531860352E-3,1.640210828E-2
4.394863385E0,-1.985955238E-2,-4.420191050E-3,-4.490852356E-3,2.083525053E-2
4.399883854E0,-1.024617255E-2,2.594925463E-4,-4.451751709E-3,1.117450140E-2
4.404904323E0,-1.026210189E-2,1.529417932E-4,-9.160041809E-3,1.375647092E-2
4.409924792E0,-1.502610743E-2,-1.414760575E-2,-4.332542419E-3,2.108813829E-2
4.414945260E0,-1.030553877E-2,-9.385593235E-3,5.205154419E-3,1.487908338E-2
4.419965729E0,-5.572170019E-3,-1.416152716E-2,5.164146423E-3,1.607066702E-2
4.424986198E0,-8.782446384E-4,-9.348783642E-3,-4.372596741E-3,1.035812104E-2
4.430006667E0,-5.720436573E-3,-4.628017545E-3,-1.383018494E-2,1.566575745E-2
4.435027135E0,-1.521921158E-2,-1.413897052E-2,-1.371288300E-2,2.489132477E-2
4.440047604E0,-1.514181495E-2,1.718401909E-4,-4.099845886E-3,1.568798347E-2
4.445068073E0,-5.619302392E-3,-9.381622076E-3,-4.062652588E-3,1.166604210E-2
4.450088542E0,-1.511861384E-2,-9.357213974E-3,-4.027366638E-3,1.823045857E-2
4.455109010E0,-5.596593022E-3,-9.333010763E-3,7.572174072E-4,1.090872685E-2
4.460129531E0,-9.027719498E-4,1.892484725E-4,-3.994941711E-3,4.100045299E-3
4.465150052E0,3.803521395E-3,-1.410908252E-2,-3.959655762E-3,1.513974433E-2
4.470170573E0,-5.826458335E-3,-9.243648499E-3,-8.672714233E-3,1.395021959E-2
4.475191094E0,-5.879193544E-3,5.026374012E-3,-8.597373962E-3,1.156478238E-2
4.480211614E0,-1.067909598E-2,1.796893775E-4,-8.522987366E-3,1.366443167E-2
4.485232135E0,-5.942299962E-3,-1.892270893E-2,-8.449554443E-3,2.155863661E-2
4.490252656E0,-1.543892920E-2,-4.521425813E-3,-8.378028870E-3,1.813822466E-2
4.495273177E0,-1.541127264E-2,2.109743655E-4,1.191139221E-3,1.545867547E-2
4.500293698E0,-1.538382471E-2,-1.889042184E-2,1.184463501E-3,2.439083954E-2
4.505314219E0,-1.530475914E-2,-9.289775044E-3,5.925178528E-3,1.885850772E-2
4.510334739E0,-5.781501532E-3,1.802593470E-4,1.130104065E-3,5.893673607E-3
4.515355260E0,-2.008013427E-2,4.822883755E-3,5.871772766E-3,2.146973953E-2
4.520375781E0,-2.001377940E-2,-4.768073559E-3,1.077651978E-3,2.060211701E-2
4.525396302E0,-1.514792442E-2,-4.780851305E-3,-8.426666260E-3,1.798123627E-2
4.530416823E0,-5.625963211E-3,-1.909089088E-2,1.143455505E-3,1.993542243E-2
4.535437344E0,-8.800178766E-4,-4.686940461E-3,1.134872437E-3,4.902017727E-3
4.540457864E0,-9.736716747E-4,-4.701651633E-3,-3.620147705E-3,6.013238230E-3
4.545478385E0,-1.066848636E-3,-4.714980721E-3,5.909919739E-3,7.635205337E-3
4.550498906E0,8.337736130E-3,2.029538155E-5,1.536083221E-2,1.747779797E-2
4.555519427E0,-1.082701981E-2,-1.427788660E-2,5.738258362E-3,1.881515381E-2
4.560539948E0,-1.083777845E-2,-1.896117628E-2,-3.803253174E-3,2.216863510E-2
4.565560469E0,-2.509397268E-2,-1.410844550E-2,-8.517265320E-3,3.002165065E-2
4.570580989E0,-1.074063778E-2,-1.404338330E-2,-1.319217682E-2,2.205927115E-2
4.575601510E0,-1.075242460E-2,-1.397886500E-2,1.166343689E-3,1.767437860E-2
4.580622031E0,-1.081597805E-2,-1.386301592E-2,1.160621643E-3,1.762145380E-2
4.585642552E0,-2.032415569E-2,4.973672330E-4,-8.342742920E-3,2.197544170E-2
4.590663021E0,-1.075877249E-2,-4.309047014E-3,-3.521919250E-3,1.211292644E-2
4.595683489E0,-1.324996352E-3,-4.378780723E-3,-8.235931396E-3,9.421247365E-3
4.600703958E0,-6.163448095E-3,-4.447933286E-3,-3.416061401E-3,8.333167372E-3
4.605724427E0,-1.464590430E-3,-1.401351392E-2,1.086044312E-2,1.778968303E-2
4.610744896E0,-2.529558539E-2,-9.203270078E-3,6.024360657E-3,2.758368615E-2
4.615765364E0,-6.191775203E-3,5.013283342E-3,1.228332520E-3,8.061010533E-3
4.620785833E0,-6.241470575E-3,-1.412687451E-2,1.220703125E-3,1.549240635E-2
4.625806302E0,-6.238594651E-3,-1.406292245E-2,1.212120056E-3,1.543227417E-2
4.630826771E0,-1.573276520E-2,-9.302869439E-3,1.203536987E-3,1.831698070E-2
4.635847239E0,-1.570294797E-2,-4.581220448E-3,5.945205688E-3,1.740447145E-2
4.640867708E0,-2.042156458E-2,9.981170297E-5,1.150131226E-3,2.045416985E-2
4.645888177E0,-6.106853485E-3,-9.503658861E-3,1.538848877E-2,1.908975584E-2
4.650908646E0,-6.105080247E-3,-4.729732871E-3,-8.480072021E-3,1.146969918E-2
4.655929114E0,-1.406699419E-3,-9.492594749E-3,-1.315498352E-2,1.628317382E-2
4.660949583E0,-6.244450808E-3,-1.896426082E-2,5.951881409E-3,2.083413657E-2
4.665970052E0,-1.104189456E-2,-9.362999350E-3,1.156806946E-3,1.452333965E-2
4.670990521E0,-1.105086505E-2,-4.590246826E-3,-8.346557617E-3,1.458961989E-2
4.676010989E0,-2.050521970E-2,-9.353008121E-3,1.221656799E-3,2.257067215E-2
4.681031458E0,-2.043564618E-2,-4.579074681E-3,1.071166992E-2,2.352282789E-2
4.686051927E0,-2.031478286E-2,-9.393796325E-3,-3.621101379E-3,2.267258669E-2
4.691072396E0,-2.019491792E-2,2.523884177E-5,1.159667969E-3,2.022820250E-2
4.696092864E0,-1.081734896E-3,-4.777241498E-3,-8.344650269E-3,9.676020609E-3
4.701113333E0,-1.173704863E-3,-4.271045327E-5,1.224517822E-3,1.696717768E-3
4.706133802E0,-1.071034372E-2,-4.895228893E-3,-8.280754089E-3,1.439602781E-2
4.711154271E0,-1.072238386E-2,-2.395281568E-2,-1.770591736E-2,3.165764369E-2
4.716174739E0,-1.548224688E-2,-1.905974001E-2,-8.058547974E-3,2.584402935E-2
4.721195208E0,-1.545421779E-2,-9.509548545E-3,1.100540161E-2,2.122223423E-2
4.726215677E0,-1.067759097E-2,-4.736833274E-3,1.091670990E-2,1.598821733E-2
4.731236146E0,-1.068960130E-2,-2.637505531E-6,1.331329346E-3,1.077218737E-2
4.736256614E0,-5.952715874E-3,-1.425128430E-2,-8.173942566E-3,1.747418861E-2
4.741277083E0,-1.075258851E-2,-1.418629661E-2,1.089096069E-2,2.086821018E-2
4.746297552E0,-2.026098967E-2,-4.624843597E-3,6.054878235E-3,2.164621055E-2
4.751318021E0,-1.069611311E-2,-1.893744618E-2,1.258850098E-3,2.178573861E-2
4.756338489E0,-1.210972667E-3,-1.408491284E-2,-3.497123718E-3,1.456300445E-2
4.761358958E0,-6.050378084E-3,-1.407317817E-2,-3.464698792E-3,1.570558998E-2
4.766379427E0,-1.554611325E-2,-1.400967687E-2,-3.434181213E-3,2.120722245E-2
4.771399896E0,-5.968675017E-3,-1.394670457E-2,-8.152008057E-3,1.722181422E-2
4.776420364E0,-1.551724970E-2,-9.134490043E-3,-3.333091736E-3,1.831211204E-2
4.781440833E0,-5.991920829E-3,3.329925239E-4,1.445770264E-3,6.172864076E-3
4.786461302E0,-1.554030180E-2,2.777092159E-4,1.436233521E-3,1.560899962E-2
4.791481771E0,-1.546022296E-2,-9.274113923E-3,-8.070945740E-3,1.975266686E-2
4.796502239E0,-1.135304570E-3,2.476610243E-4,6.243705750E-3,6.350914417E-3
4.801522708E0,-1.072412729E-2,1.412220299E-4,1.094341278E-2,1.532269993E-2
4.806543177E0,-1.063200831E-2,-1.421109587E-2,1.085281372E-2,2.080332695E-2
4.811563646E0,-1.528950036E-2,-1.419704780E-2,-3.481864929E-3,2.115297546E-2
4.816584114E0,-1.526308060E-2,-1.418437436E-2,6.047248840E-3,2.169625138E-2
4.821604583E0,-1.043647528E-2,-1.411994174E-2,1.250267029E-3,1.760272532E-2
4.826625052E0,-1.039864123E-2,-4.559040070E-3,1.241683960E-3,1.142183719E-2
4.831645521E0,-1.036112010E-2,-9.323321283E-3,5.981445312E-3,1.516755806E-2
4.836665989E0,-1.982122660E-2,-4.497766495E-3,1.184463501E-3,2.035961397E-2
4.841686458E0,-1.970517635E-2,-9.262558073E-3,1.176834106E-3,2.180536392E-2
4.846706927E0,-5.396753550E-3,-1.398638636E-2,-3.578186035E-3,1.541257174E-2
4.851727396E0,-7.042884827E-4,-1.397547126E-2,-8.294105530E-3,1.626659170E-2
4.856747864E0,-1.024423540E-2,-9.165536612E-3,1.274108887E-3,1.380488224E-2
4.861768333E0,-1.975718141E-2,-9.141672403E-3,6.014823914E-3,2.258527171E-2
4.866788802E0,-1.494504511E-2,-1.386776567E-2,2.021312714E-2,2.870957691E-2
4.871809271E0,-6.762892008E-4,4.407875240E-4,-3.694534302E-3,3.781698617E-3
4.876829739E0,-1.026923954E-2,-1.860813797E-2,1.058483124E-2,2.374360402E-2
4.881850208E0,-5.536168814E-3,-1.381021366E-2,5.750656128E-3,1.595121350E-2
4.886870677E0,-1.508805156E-2,-1.380077004E-2,9.574890137E-4,2.047015727E-2
4.891891146E0,-1.506361365E-2,-2.323527262E-2,-8.544921875E-3,2.897940717E-2
4.896911614E0,-1.503938437E-2,-1.359715685E-2,-8.470535278E-3,2.197306816E-2
4.901932083E0,-1.021435857E-2,-3.990005702E-3,5.846023560E-3,1.242695691E-2
4.906952552E0,-2.442388237E-2,-4.010524601E-3,1.529598236E-2,2.909600340E-2
4.911973021E0,-1.007552445E-2,-8.832506835E-3,9.260177612E-4,1.343081825E-2
4.916993489E0,-5.292207003E-3,-8.864544332E-3,1.041698456E-2,1.466632771E-2
4.922013958E0,-1.009789109E-2,-8.843187243E-3,5.584716797E-3,1.453817137E-2
4.927034427E0,-5.262807012E-3,6.749853492E-4,1.028633118E-2,1.157416744E-2
4.932054896E0,-5.268380046E-3,-1.362865791E-2,-1.354026794E-2,1.992071788E-2
4.937075364E0,-5.273908377E-3,-1.356760040E-2,8.201599121E-4,1.457966229E-2
4.942095833E0,-5.279392004E-3,6.865784526E-4,5.563735962E-3,7.700553731E-3
4.947116302E0,-5.284830928E-3,5.764737725E-4,-1.347446442E-2,1.448526670E-2
4.952136771E0,-5.342081189E-3,5.191564560E-4,-3.862380981E-3,6.612514023E-3
4.957157239E0,-5.346998572E-3,-4.338048398E-3,-3.828048706E-3,7.878008285E-3
4.962177708E0,-1.490046084E-2,-9.104169905E-3,5.703926086E-3,1.836966020E-2
4.967198177E0,-1.487728953E-2,-1.857906953E-2,-8.585929871E-3,2.530284095E-2
4.972218646E0,-1.005360484E-2,-2.327964827E-2,-1.326084137E-2,2.861585064E-2
4.977239114E0,-1.007021964E-2,-1.369680464E-2,-8.399009705E-3,1.896193938E-2
4.982259583E0,-1.008729637E-2,-8.887931705E-3,1.171112061E-3,1.349519846E-2
4.987280052E0,-6.075352430E-4,-1.361488178E-2,5.912780762E-3,1.485580968E-2
4.992300521E0,-5.451962352E-3,-1.835555583E-2,1.117706299E-3,1.918070882E-2
4.997320989E0,-1.025602221E-2,-1.366347075E-2,5.860328674E-3,1.806155798E-2
5.002341458E0,-5.574926734E-3,-1.840374246E-2,1.068115234E-3,1.925924232E-2
5.007361927E0,-1.037795842E-2,-8.807148784E-3,-3.686904907E-3,1.410181401E-2
5.012382396E0,-5.644276738E-3,7.107332349E-4,-3.653526306E-3,6.761009991E-3
5.017402864E0,-8.981674910E-4,6.523020566E-4,-3.621101379E-3,3.787423665E-3
5.022423333E0,-1.048867404E-2,-8.903902024E-3,-3.587722778E-3,1.421842147E-2
5.027443802E0,-5.754068494E-3,6.147846580E-4,1.193046570E-3,5.908521348E-3
5.032464271E0,-2.005264163E-2,-4.192601889E-3,1.186370850E-3,2.052057072E-2
5.037484739E0,-1.523832977E-2,-1.365531236E-2,-3.569602966E-3,2.077056367E-2
5.042505208E0,-5.715325475E-3,-1.354341954E-2,-1.303386688E-2,1.964614069E-2
5.047525677E0,-5.716830492E-3,-1.348432899E-2,1.321792603E-3,1.470565928E-2
5.052546146E0,-1.521533728E-2,-1.342573017E-2,-3.436088562E-3,2.058065654E-2
5.057566614E0,-1.988616586E-2,8.260160685E-4,-3.405570984E-3,2.019256816E-2
5.062587083E0,-5.575940013E-3,7.653646171E-4,-8.122444153E-3,9.881851499E-3
5.067607552E0,-1.037897170E-2,-4.043277353E-3,6.193161011E-3,1.274466118E-2
5.072628021E0,-9.483546019E-4,-2.310921997E-2,1.398086548E-3,2.317088842E-2
5.077648489E0,3.707349300E-3,7.189549506E-4,-3.358840942E-3,5.054022906E-3
5.082668958E0,-5.973398685E-3,-4.193037748E-3,1.421928406E-3,7.435384173E-3
5.087689427E0,-1.077312231E-2,-9.012237191E-3,1.413345337E-3,1.411659054E-2
5.092709896E0,-1.548101008E-2,-9.042773396E-3,-8.093833923E-3,1.967088131E-2
5.097730364E0,-1.065261662E-2,-1.376969367E-2,-8.024215698E-3,1.916952640E-2
5.102750833E0,-1.056110859E-2,-1.376058161E-2,-3.208160400E-3,1.764037738E-2
5.107771302E0,-1.052223146E-2,-8.951175958E-3,6.317138672E-3,1.519036362E-2
5.112791771E0,-1.523250341E-2,-8.980955929E-3,-7.979393005E-3,1.939993408E-2
5.117812239E0,-1.515470445E-2,-1.845688000E-2,-7.910728455E-3,2.515752593E-2
5.122832708E0,-1.038119197E-2,-2.790444531E-2,-3.093719482E-3,2.993323094E-2
5.127853177E0,-1.039597392E-2,-1.822741330E-2,1.683235168E-3,2.105108429E-2
5.132873646E0,-1.510700583E-2,-1.818115264E-2,-7.825851440E-3,2.490019854E-2
5.137894114E0,-1.028172672E-2,-1.338677853E-2,1.738548279E-3,1.696886248E-2
5.142914583E0,-1.024517417E-2,-8.684214205E-3,1.726150513E-3,1.354100313E-2
5.147935052E0,-1.020862162E-2,-8.666872978E-3,1.121044159E-2,1.746438213E-2
5.152955521E0,-1.492120326E-2,-1.819727942E-2,1.622200012E-3,2.358844670E-2
5.157975989E0,-1.014932990E-2,-8.654270321E-3,-3.136634827E-3,1.370196228E-2
5.162996458E0,-1.016545296E-2,-2.763117664E-2,-3.108024597E-3,2.960537406E-2
5.168016927E0,-1.487839222E-2,-1.326105371E-2,-3.080368042E-3,2.016707137E-2
5.173037396E0,-5.306228995E-3,-1.320556924E-2,1.695632935E-3,1.433242115E-2
5.178057864E0,-5.363300443E-3,-3.702893853E-3,-3.064155579E-3,7.201768112E-3
5.183078333E0,-6.711184978E-4,-1.327467710E-2,6.461143494E-3,1.477883038E-2
5.188098802E0,-1.026351750E-2,-8.469317108E-3,-7.835388184E-3,1.544222885E-2
5.193119271E0,-5.530789495E-3,-8.503109217E-3,-7.767677307E-3,1.277612263E-2
5.198139739E0,-1.508241892E-2,-3.738772124E-3,-2.951622009E-3,1.581675851E-2
5.203160208E0,-1.025705040E-2,-8.563008159E-3,-7.673263550E-3,1.540815255E-2
5.208180677E0,-5.524083972E-3,-1.804241538E-2,1.138782501E-2,2.203921085E-2
5.213201146E0,-5.579352379E-3,-8.395705372E-3,6.546974182E-3,1.201997973E-2
5.218221614E0,-5.582287908E-3,-1.307488605E-2,6.493568420E-3,1.562949182E-2
5.223242083E0,-1.033368707E-2,-1.776693016E-2,-3.055572510E-3,2.077944704E-2
5.228262552E0,-8.518844843E-4,-1.292288303E-2,6.469726562E-3,1.447701540E-2
5.233283021E0,-8.942186832E-4,-3.422562033E-3,1.116657257E-2,1.171349226E-2
5.238303489E0,-1.043288410E-2,-8.248176426E-3,6.326675415E-3,1.472767146E-2
5.243323958E0,-5.594715476E-3,-1.303357631E-2,6.275177002E-3,1.550976464E-2
5.248344427E0,-8.490234613E-4,-8.280832320E-3,1.572132111E-2,1.778912483E-2
5.253364896E0,-5.639865994E-3,-8.316203952E-3,-3.401756287E-3,1.060845335E-2
5.258385364E0,-1.039078832E-2,-8.351277560E-3,-8.119583130E-3,1.560897014E-2
5.263405833E0,-5.604833364E-3,-1.783245057E-2,-3.301620483E-3,1.898186366E-2
5.268426302E0,-1.035575569E-2,-1.298912242E-2,-3.272056580E-3,1.693119403E-2
5.273446771E0,-1.511956751E-2,-1.293212548E-2,-1.273918152E-2,2.362473147E-2
5.278467239E0,-1.034633815E-2,-1.287686452E-2,-1.263046265E-2,2.079396402E-2
5.283487708E0,-1.510994136E-2,-8.177291602E-3,-1.727008820E-2,2.436050846E-2
5.288508177E0,-1.033680141E-2,-1.301388443E-2,-2.877235413E-3,1.686680571E-2
5.293528646E0,-5.551889539E-3,-1.300854608E-2,6.645202637E-3,1.562704280E-2
5.298549114E0,-1.035541296E-2,-2.244964615E-2,-2.903938293E-3,2.489285133E-2
5.303569583E0,-8.736997843E-4,-1.761717349E-2,-7.625579834E-3,1.921659754E-2
5.308590052E0,-1.046527922E-2,-3.274850547E-3,1.937866211E-3,1.113562036E-2
5.313610521E0,-1.042750478E-2,-1.759742945E-2,-2.824783325E-3,2.064901402E-2
5.318630989E0,-1.038974524E-2,-8.059415966E-3,-2.799034119E-3,1.344379350E-2
5.323651458E0,-1.990118623E-2,-3.349382430E-3,1.976013184E-3,2.027757885E-2
5.328671927E0,-1.978477836E-2,-8.122481406E-3,1.145839691E-2,2.426328540E-2
5.333692396E0,-1.492112875E-2,-1.290640980E-2,1.136493683E-2,2.276790035E-2
5.338712864E0,-1.489807665E-2,-1.290322840E-2,-7.720947266E-3,2.116740461E-2
5.343733333E0,-1.487521827E-2,-8.151572198E-3,-7.654190063E-3,1.860932222E-2
5.348753802E0,-6.067454815E-4,-3.388904035E-3,-1.233577728E-2,1.280719375E-2
5.353774271E0,-7.026940584E-4,-1.291143522E-2,6.763458252E-3,1.459257708E-2
5.358794739E0,8.698850870E-3,-3.359340131E-3,1.961708069E-3,9.529085535E-3
5.363815208E0,-9.197592735E-4,1.363385469E-3,1.947402954E-3,2.548951809E-3
5.368835677E0,-1.525890827E-2,-8.145615458E-3,-2.814292908E-3,1.752442802E-2
5.373856146E0,-1.518118382E-2,-8.130241185E-3,-1.228618622E-2,2.115465754E-2
5.378876614E0,-5.607083440E-3,-3.366492689E-3,-7.432937622E-3,9.900566621E-3
5.383897083E0,-1.510681212E-2,-1.288795099E-2,-7.369041443E-3,2.118060020E-2
5.388917552E0,-1.508191228E-2,-1.288617775E-2,6.940841675E-3,2.101649205E-2
5.393938021E0,-5.508348346E-3,-1.283255965E-2,2.136230469E-3,1.412727749E-2
5.398958489E0,-1.025977731E-2,-8.032143116E-3,2.120018005E-3,1.320124349E-2
5.403978958E0,-1.027557254E-2,-3.321070224E-3,2.104759216E-3,1.100213206E-2
5.408999427E0,-1.503947377E-2,-8.147522807E-3,-2.658843994E-3,1.731003612E-2
5.414019896E0,-1.501514018E-2,6.112109870E-3,-7.382392883E-3,1.781325479E-2
5.419040364E0,-7.454901934E-4,-3.489587456E-3,-7.318496704E-3,8.142074075E-3
5.424060833E0,-5.588755012E-3,-1.306314021E-2,-7.254600525E-3,1.595333957E-2
5.429081302E0,-8.946657181E-4,-3.511037678E-3,-7.191658020E-3,8.052810528E-3
5.434101771E0,3.760010004E-3,-8.282784373E-3,-2.380371094E-3,9.402571921E-3
5.439122239E0,-5.869597197E-3,-8.266262710E-3,-2.357482910E-3,1.040869810E-2
5.444142708E0,-1.067017019E-2,1.245856285E-3,2.413749695E-3,1.101048942E-2
5.449163177E0,-1.063038409E-2,-1.306379214E-2,1.189231873E-2,2.061783150E-2
5.454183646E0,-1.533944905E-2,-1.300869510E-2,7.046699524E-3,2.131151847E-2
5.459204114E0,-1.051223278E-2,-1.300591603E-2,6.989479065E-3,1.812494710E-2
5.464224583E0,-1.522229612E-2,-1.305502281E-2,-2.563476562E-3,2.021690707E-2
5.469245052E0,-5.699411035E-3,-1.785221696E-2,-1.203536987E-2,2.227184466E-2
5.474265521E0,-1.044924557E-2,-8.313339204E-3,2.312660217E-3,1.355163234E-2
5.479285989E0,-1.041130722E-2,-1.309819147E-2,-2.452850342E-3,1.691077800E-2
5.484306458E0,-1.992285252E-2,-1.784190163E-2,2.319335938E-3,2.684460514E-2
5.489326927E0,-1.510961354E-2,1.248273998E-3,-7.194519043E-3,1.678152894E-2
5.494347396E0,-5.536109209E-3,-8.311629295E-3,-7.132530212E-3,1.227210960E-2
5.499367864E0,-7.906109095E-4,-1.309648901E-2,-1.181983948E-2,1.765932318E-2
5.504388333E0,-5.581349134E-3,-3.597229719E-3,-1.646804810E-2,1.775635458E-2
5.509408802E0,-8.873343468E-4,-3.672875464E-3,-2.082824707E-3,4.314572421E-3
5.514429271E0,-9.812265635E-4,-8.443273604E-3,-6.811141968E-3,1.089235189E-2
5.519449739E0,-5.770683289E-3,-1.322703436E-2,-6.752014160E-3,1.593251138E-2
5.524470208E0,-1.046834886E-2,-1.797092333E-2,-1.144313812E-2,2.373785634E-2
5.529490677E0,3.763392568E-3,-2.262342721E-2,2.900123596E-3,2.311694831E-2
5.534511146E0,-2.011117339E-2,-1.774142310E-2,1.237583160E-2,2.953605588E-2
5.539531614E0,-2.479305863E-2,-8.202198893E-3,1.227569580E-2,2.885592713E-2
5.544552083E0,-2.468743920E-2,-8.187610656E-3,2.678871155E-3,2.614733205E-2
5.549572552E0,-1.503385603E-2,-8.173141629E-3,-6.838798523E-3,1.842786576E-2
5.554593021E0,-1.020918787E-2,-8.158795536E-3,-6.779670715E-3,1.472268306E-2
5.559613489E0,-5.424752831E-3,-1.294492558E-2,-1.973152161E-3,1.417365059E-2
5.564633958E0,-1.022931933E-2,-8.192911744E-3,7.543563843E-3,1.512177676E-2
5.569654427E0,-1.024535298E-2,-8.177142590E-3,-6.761550903E-3,1.474962675E-2
5.574674896E0,-5.512461066E-3,-8.162762970E-3,2.794265747E-3,1.023844946E-2
5.579695364E0,-8.187144995E-4,-3.453120589E-3,7.522583008E-3,8.317667362E-3
5.584715833E0,-1.041015983E-2,-1.302570850E-2,2.714157104E-3,1.689399770E-2
5.589736302E0,-5.675897002E-3,-1.771941781E-2,-2.054214478E-3,1.871933149E-2
5.594756771E0,-9.292364120E-4,-8.180379868E-3,7.461547852E-3,1.111111117E-2
5.599777239E0,-5.718827248E-3,-3.418732435E-3,-2.096176147E-3,6.984745592E-3
5.604797708E0,-5.772158504E-3,-8.244369179E-3,-2.076148987E-3,1.027608055E-2
5.609818177E0,-5.825340748E-3,-3.427807242E-3,-2.056121826E-3,7.064849204E-3
5.614838646E0,-1.537480950E-2,-1.295001432E-2,2.712249756E-3,2.028408088E-2
5.619859114E0,-1.050308347E-3,-8.147362620E-3,1.693725586E-2,1.882427426E-2
5.624879583E0,8.354455233E-3,-1.288173720E-2,7.302284241E-3,1.700174787E-2
5.629900052E0,-1.261591911E-3,-3.381747752E-3,2.494812012E-3,4.387700877E-3
5.634920521E0,-1.079690456E-2,1.288041472E-3,-2.272605896E-3,1.110841737E-2
5.639940989E0,-1.259073615E-3,-3.576815128E-3,7.245063782E-3,8.177397021E-3
5.644961458E0,-5.994349718E-3,-3.652635962E-3,1.193428040E-2,1.384561398E-2
5.649981927E0,-5.993828177E-3,-2.266870439E-2,2.339363098E-3,2.356414129E-2
5.655002396E0,-6.045162678E-3,-1.303530112E-2,2.323150635E-3,1.455541466E-2
5.660022864E0,-1.347273588E-3,-8.231937885E-3,2.306938171E-3,8.654589025E-3
5.665043333E0,-6.185531616E-3,1.279894263E-3,-7.205963135E-3,9.582527610E-3
5.670063802E0,-6.183117628E-3,1.215461642E-3,-1.189231873E-2,1.345866023E-2
5.675084271E0,-1.092892885E-2,1.150302589E-3,-2.294540405E-3,1.122629046E-2
5.680104739E0,-1.093854010E-2,1.085687429E-3,7.224082947E-3,1.315362122E-2
5.685125208E0,-1.089681685E-2,9.722784162E-4,-7.080078125E-3,1.303124894E-2
5.690145677E0,-2.515250444E-2,-3.838084638E-3,-7.018089294E-3,2.639380516E-2
5.695166146E0,-1.249521971E-3,-8.608371019E-3,-2.209663391E-3,8.974852036E-3
5.700186614E0,-1.558589935E-2,-1.803427562E-2,7.308959961E-3,2.493143100E-2
5.705207083E0,-6.059989333E-3,-8.440759033E-3,2.502441406E-3,1.068794165E-2
5.710227552E0,-1.085896790E-2,-1.792118326E-2,7.232666016E-3,2.216748635E-2
5.715248021E0,-1.556642354E-2,-8.327346295E-3,1.192283630E-2,2.130286984E-2
5.720268489E0,-1.073731482E-2,-8.259858936E-3,7.076263428E-3,1.528360897E-2
5.725288958E0,-1.549763978E-2,-3.495026380E-3,7.019996643E-3,1.736871903E-2
5.730309427E0,-1.552134752E-2,-8.268170059E-3,2.216339111E-3,1.772532155E-2
5.735329896E0,-1.074446738E-2,-3.504533321E-3,-2.548217773E-3,1.158528147E-2
5.740350364E0,-2.025294304E-2,-3.529094160E-3,-2.524375916E-3,2.071252474E-2
5.745370833E0,-2.018545568E-2,-8.300691843E-3,-7.248878479E-3,2.299783349E-2
5.750391302E0,-1.536972821E-2,-8.233424276E-3,-2.437591553E-3,1.760567162E-2
5.755411771E0,-5.845323205E-3,-1.296834275E-2,2.333641052E-3,1.441497824E-2
5.760432239E0,-5.845457315E-3,1.330200583E-3,-2.432823181E-3,6.469732100E-3
5.765452708E0,-1.059436798E-2,-1.303201541E-2,2.337455750E-3,1.695693834E-2
5.770473177E0,-2.010437846E-2,-3.530774266E-3,-7.176399231E-3,2.163684603E-2
5.775493646E0,-1.523748040E-2,-3.555115312E-3,-7.114410400E-3,1.718820785E-2
5.780514114E0,-5.662620068E-3,-1.307625696E-2,-2.305030823E-3,1.443492048E-2
5.785534583E0,-1.516188681E-2,-8.271288127E-3,1.196193695E-2,2.100916359E-2
5.790555052E0,-2.933044732E-2,-1.295150816E-2,1.186275482E-2,3.418686379E-2
5.795575521E0,-1.488967240E-2,-1.289734244E-2,1.176548004E-2,2.294494077E-2
5.800595989E0,-1.006649435E-2,-1.284237206E-2,-1.207351685E-2,2.029853782E-2
5.805616458E0,-5.344599485E-4,-1.279037446E-2,2.274513245E-3,1.300202818E-2
5.810636927E0,-5.266815424E-4,-3.243058920E-3,-2.492904663E-3,4.124245175E-3
5.815657396E0,-1.956485212E-2,-8.072678000E-3,2.278327942E-3,2.128714041E-2
5.820677864E0,-1.945064962E-2,-8.112292737E-3,2.261161804E-3,2.119551643E-2
5.825698333E0,-9.840667248E-3,-1.284695417E-2,2.243995667E-3,1.633763997E-2
5.830718802E0,-3.108084202E-4,-3.296654671E-3,1.172447205E-2,1.218309397E-2
5.835739271E0,-5.105853081E-3,-8.071452379E-3,1.162910461E-2,1.504839371E-2
5.840759739E0,-1.460915804E-2,-3.362573683E-3,1.628303528E-2,2.213304404E-2
5.845780208E0,-9.839892387E-3,-3.388319165E-3,1.140213013E-2,1.543738191E-2
5.850800677E0,-9.910762310E-3,-1.296271756E-2,-2.933502197E-3,1.657892311E-2
5.855821146E0,-1.467770338E-2,1.337040216E-3,-2.905845642E-3,1.502220330E-2
5.860841614E0,-9.856298566E-3,1.273389906E-3,1.869201660E-3,1.011247043E-2
5.865862083E0,-1.457211375E-2,-3.538228571E-3,-2.893447876E-3,1.527211843E-2
5.870882552E0,-5.002498627E-3,-1.306077093E-2,6.629943848E-3,1.547788374E-2
5.875903021E0,-5.009651184E-3,-8.258450776E-3,-2.920150757E-3,1.009088176E-2
5.880923489E0,-9.765535593E-3,-8.295260370E-3,1.135158539E-2,1.711828031E-2
5.885943958E0,-1.453368366E-2,-1.308026537E-2,1.762390137E-3,1.963230302E-2
5.890964427E0,-1.921048760E-2,-3.578629345E-3,-2.999305725E-3,1.976980670E-2
5.895984896E0,-1.435133815E-2,-3.653179854E-3,-7.720947266E-3,1.670088789E-2
5.901005364E0,-9.532645345E-3,-8.423749357E-3,1.842498779E-3,1.285401425E-2
5.906025833E0,-1.430273056E-2,-8.407317102E-3,1.830101013E-3,1.669132565E-2
5.911046302E0,-9.536013007E-3,-8.391022682E-3,1.817703247E-3,1.283155684E-2
5.916066771E0,-4.809349775E-3,-1.312211156E-2,-2.943038940E-3,1.428219644E-2
5.921087239E0,-9.567201138E-3,-8.264902979E-3,-2.917289734E-3,1.297499666E-2
5.926107708E0,-9.588778019E-3,-8.248537779E-3,1.858711243E-3,1.278428124E-2
5.931128177E0,-4.861667752E-3,-8.284173906E-3,1.846313477E-3,9.781217925E-3
5.936148646E0,-9.618788958E-3,-3.624130040E-3,1.832962036E-3,1.044103297E-2
5.941169114E0,-9.587764740E-3,-1.789319515E-2,6.567955017E-3,2.133611255E-2
5.946189583E0,-2.385438979E-2,-1.784971356E-2,-1.247787476E-2,3.230079790E-2
5.951210052E0,-9.511083364E-3,-1.305809990E-2,-1.711940765E-2,2.353824118E-2
5.956230521E0,-1.428134739E-2,-1.775154471E-2,-1.222515106E-2,2.585591889E-2
5.961250989E0,-9.514793754E-3,-1.296074688E-2,1.162242889E-2,1.983918127E-2
5.966271458E0,-9.536504745E-3,-1.290650666E-2,1.627731323E-2,2.285768499E-2
5.971291927E0,-6.105005741E-5,-1.760121435E-2,6.647109985E-3,1.881463645E-2
5.976312396E0,-9.606957436E-3,-8.010048419E-3,-2.902984619E-3,1.284063186E-2
5.981332864E0,-1.437643170E-2,-7.945202291E-3,1.872062683E-3,1.653217005E-2
5.986353333E0,-1.121163368E-4,-1.748162135E-2,6.608009338E-3,1.868917983E-2
5.991373802E0,-4.908815026E-3,-1.264121011E-2,-2.942085266E-3,1.387632962E-2
5.996394271E0,-1.685470343E-4,-7.841128856E-3,1.832962036E-3,8.054282070E-3
6.001414739E0,4.532217979E-3,-1.257805526E-2,1.819610596E-3,1.349294100E-2
6.006435208E0,4.445314407E-3,1.666631550E-3,1.806259155E-3,5.079473697E-3
6.011455677E0,-5.189418793E-3,-1.264778152E-2,-1.245117188E-2,1.849129865E-2
6.016476146E0,-1.469232142E-2,-1.259614900E-2,1.899719238E-3,1.944572476E-2
6.021496614E0,-9.818926454E-3,-7.898915559E-3,1.884460449E-3,1.274187486E-2
6.026517083E0,-5.037739873E-3,-7.938720286E-3,1.871109009E-3,9.586613152E-3
6.031537552E0,-5.045190454E-3,-1.742207259E-2,-2.891540527E-3,1.836691500E-2
6.036558021E0,-9.800776839E-3,-3.085155040E-3,-1.236248016E-2,1.607495954E-2
6.041578489E0,-2.712458372E-4,-3.113210201E-3,-7.509231567E-3,8.133523885E-3
6.046598958E0,-5.066618323E-3,-1.743839681E-2,-7.444381714E-3,1.962618464E-2
6.051619427E0,-1.457084715E-2,-7.848586887E-3,-2.632141113E-3,1.675822394E-2
6.056639896E0,-1.924735308E-2,-1.263605431E-2,6.888389587E-3,2.403290203E-2
6.061660364E0,-9.639069438E-3,-7.836017758E-3,1.632976532E-2,2.051770137E-2
6.066680833E0,-4.911541939E-3,-7.823228836E-3,6.699562073E-3,1.141097216E-2
6.071701302E0,-9.720399976E-3,-7.810544223E-3,1.897811890E-3,1.261318622E-2
6.076721771E0,-1.443704963E-2,-7.851086557E-3,1.138114929E-2,1.998996051E-2
6.081742239E0,-9.669214487E-3,-7.839426398E-3,1.791954041E-3,1.257622417E-2
6.086762708E0,-4.889577627E-3,-3.026243299E-3,1.777648926E-3,6.018816626E-3
6.091783177E0,-9.698629379E-3,-7.750172168E-3,6.514549255E-3,1.402026863E-2
6.096803646E0,4.526674747E-3,-1.253972203E-2,6.463050842E-3,1.481574969E-2
6.101824114E0,-3.602504730E-4,-3.045108169E-3,6.412506104E-3,7.107932097E-3
6.106844583E0,-1.465189457E-2,-3.073498607E-3,1.585769653E-2,2.180804777E-2
6.111865052E0,-1.457892358E-2,-1.745088771E-2,6.230354309E-3,2.357744281E-2
6.116885521E0,-9.758338332E-3,-7.912844419E-3,1.431465149E-3,1.264465762E-2
6.121905989E0,-2.402353287E-2,-1.275290549E-2,1.566886902E-2,3.138917307E-2
6.126926458E0,-1.912397146E-2,-8.055631071E-3,1.079177856E-2,2.338978326E-2
6.131946927E0,-9.568586946E-3,-3.345634788E-3,1.070499420E-2,1.474272801E-2
6.136967396E0,-4.789486527E-3,-1.766889170E-2,1.120567322E-3,1.834079023E-2
6.141987864E0,-9.599074721E-3,-8.130289614E-3,1.113891602E-3,1.262872120E-2
6.147008333E0,-1.436890662E-2,-3.418415785E-3,-8.389472961E-3,1.698629743E-2
6.152028802E0,-1.429830492E-2,-8.192200214E-3,-3.569602966E-3,1.686107153E-2
6.157049271E0,-4.782840610E-3,-1.292746142E-2,5.959510803E-3,1.501701009E-2
6.162069739E0,-4.843980074E-3,-1.292536780E-2,1.164436340E-3,1.385226291E-2
6.167090208E0,-4.904612899E-3,-1.292329282E-2,1.157760620E-3,1.387108988E-2
6.172110677E0,-9.713232517E-3,-1.766972989E-2,1.151084900E-3,2.019631740E-2
6.177131146E0,-9.681716561E-3,-3.381360322E-3,-3.604888916E-3,1.087034762E-2
6.182151614E0,-2.053380013E-4,-1.295457035E-2,1.176834106E-3,1.300953478E-2
6.187172083E0,-5.001261830E-3,-8.203748614E-3,-3.579139709E-3,1.025301674E-2
6.192192552E0,-3.123879433E-4,-1.298826933E-2,1.201629639E-3,1.304747639E-2
6.197213021E0,-9.908065200E-3,-1.298441365E-2,-3.554344177E-3,1.671520614E-2
6.202233489E0,-4.298090935E-4,-8.232086897E-3,1.226425171E-3,8.334033191E-3
6.207253958E0,-5.278140306E-4,-3.518104553E-3,5.967140198E-3,6.947115188E-3
6.212274427E0,-1.486992836E-2,-1.303956285E-2,-8.325576782E-3,2.145833632E-2
6.217294896E0,-1.959520578E-2,-3.540791571E-3,-8.253097534E-3,2.155511340E-2
6.222315364E0,-1.003588736E-2,-8.313558996E-3,-1.292991638E-2,1.835802375E-2
6.227335833E0,-1.005326211E-2,-1.304655150E-2,-3.322601318E-3,1.680238866E-2
6.232356302E0,-5.322292447E-3,-3.597069532E-3,-3.291130066E-3,7.217842006E-3
6.237376771E0,4.117757082E-3,-1.316847652E-2,6.236076355E-3,1.514111441E-2
6.242397239E0,-5.514249206E-3,-1.311376691E-2,6.186485291E-3,1.551291163E-2
6.247417708E0,-1.506631076E-2,-1.300638914E-2,6.137847900E-3,2.082865947E-2
6.252438177E0,-1.973809302E-2,-1.300489902E-2,1.083755493E-2,2.600331347E-2
6.257458646E0,-1.962274313E-2,-1.300216094E-2,-3.496170044E-3,2.379771926E-2
6.262479114E0,-1.006320119E-2,-1.299944520E-2,1.284599304E-3,1.648950542E-2
6.267499583E0,-5.383715034E-3,5.997251719E-3,1.077556610E-2,1.345601132E-2
6.272520052E0,-1.493686438E-2,1.093134284E-3,1.068878174E-2,1.839986182E-2
6.277540521E0,-5.364507437E-3,-1.801560819E-2,-8.392333984E-3,2.058570738E-2
6.282560989E0,-5.420804024E-3,-1.791924611E-2,-1.306819916E-2,2.283117007E-2
6.287581458E0,-1.022513211E-2,-8.326690644E-3,-8.208274841E-3,1.553263917E-2
6.292601927E0,-5.492433906E-3,-1.305957511E-2,-3.388404846E-3,1.456710746E-2
6.297622396E0,-5.547657609E-3,-8.256010711E-3,1.391410828E-3,1.004361697E-2
6.302642864E0,-1.035092771E-2,-1.298948377E-2,6.131172180E-3,1.770479216E-2
6.307663333E0,-1.036596298E-2,-1.293374971E-2,1.334190369E-3,1.662874421E-2
6.312683802E0,-1.038058102E-2,-3.382731229E-3,1.325607300E-3,1.099802562E-2
6.317704271E0,-5.646586418E-3,-3.408312798E-3,-3.431320190E-3,7.434681739E-3
6.322724739E0,-1.519754529E-2,-3.485545516E-3,6.096839905E-3,1.674174027E-2
6.327745208E0,-5.675181746E-3,-8.309379220E-3,1.079750061E-2,1.475938652E-2
6.332765677E0,-1.997469366E-2,1.204352826E-3,1.071071625E-2,2.269709882E-2
6.337786146E0,-9.152293205E-4,-3.607947379E-3,1.127243042E-3,3.889165190E-3
6.342806667E0,-5.757093430E-3,-8.432023227E-3,1.061725616E-2,1.472987675E-2
6.347827187E0,3.686875105E-3,-8.467398584E-3,5.783081055E-3,1.089650923E-2
6.352847708E0,-1.193344593E-3,-1.325098425E-2,1.523494720E-2,2.022662283E-2
6.357868229E0,-1.078109443E-2,-1.324746385E-2,1.036262512E-2,1.997777002E-2
6.362888750E0,-6.044074893E-3,-1.793807745E-2,-1.346302032E-2,2.322839599E-2
6.367909271E0,-1.084350049E-2,-2.258960530E-2,-8.599281311E-3,2.649187441E-2
6.372929792E0,-1.080256701E-2,-8.260238916E-3,1.046848297E-2,1.716147245E-2
6.377950312E0,-1.081384718E-2,-1.304428652E-2,8.869171143E-4,1.696700692E-2
6.382970833E0,-1.557296515E-2,-1.299061999E-2,-3.866195679E-3,2.064511855E-2
6.387991354E0,-1.549232006E-2,-3.491003066E-3,-8.580207825E-3,1.805045843E-2
6.393011875E0,-2.016113698E-2,-1.301142573E-2,-8.506774902E-3,2.545847331E-2
6.398032396E0,-1.529376209E-2,-2.245377004E-2,-3.685951233E-3,2.741636709E-2
6.403052917E0,-1.046691835E-2,-1.762379333E-2,1.094818115E-3,2.052688719E-2
6.408073437E0,-1.048098505E-2,6.161190569E-3,1.088142395E-3,1.220636599E-2
6.413093958E0,-5.694583058E-3,-3.491532058E-3,1.057815552E-2,1.251065332E-2
6.418114479E0,-1.044505835E-2,-8.315321058E-3,1.049232483E-2,1.698036185E-2
6.423135000E0,-1.035557687E-2,-3.550037742E-3,-3.840446472E-3,1.160128309E-2
6.428155521E0,-5.569919944E-3,1.174271107E-3,-3.806114197E-3,6.847585421E-3
6.433176042E0,-5.572929978E-3,-3.636520356E-3,-3.772735596E-3,7.649533497E-3
6.438196562E0,-1.982143521E-2,-8.407227695E-3,1.008987427E-3,2.155432270E-2
6.443217083E0,-1.975755394E-2,-3.641176969E-3,-8.493423462E-3,2.181186258E-2
6.448237604E0,-2.444240451E-2,5.832396448E-3,1.077651978E-3,2.515172599E-2
6.453258125E0,-5.294129252E-3,-3.765717149E-3,5.819320679E-3,8.721979325E-3
6.458278646E0,-5.403473973E-3,-1.803109050E-2,5.774497986E-3,1.968914885E-2
6.463299167E0,-1.495675743E-2,-8.488219231E-3,9.803771973E-4,1.722543462E-2
6.468319687E0,-1.488095522E-2,-8.524384350E-3,-8.522987366E-3,1.915069895E-2
6.473340208E0,-5.360633135E-3,-3.811746836E-3,-8.449554443E-3,1.070797702E-2
6.478360677E0,-1.011329889E-2,8.616149426E-4,5.867958069E-3,1.172408319E-2
6.483381146E0,-1.012970507E-2,-3.949090838E-3,-8.423805237E-3,1.375378995E-2
6.488401614E0,-1.014658809E-2,-4.020564258E-3,1.146316528E-3,1.097416185E-2
6.493422083E0,-1.016303897E-2,-8.789330721E-3,5.887985229E-3,1.466997156E-2
6.498442552E0,-6.304830313E-4,-1.351835951E-2,1.533794403E-2,2.045473246E-2
6.503463021E0,-6.746649742E-4,-8.709717542E-3,-8.530616760E-3,1.221006858E-2
6.508483489E0,-5.466967821E-3,-1.343815401E-2,-1.320648193E-2,1.961843229E-2
6.513503958E0,-1.496756077E-2,-8.631438017E-3,-3.597259521E-3,1.764850911E-2
6.518524427E0,-1.964046061E-2,-1.811027899E-2,5.931854248E-3,2.736634417E-2
6.523544896E0,-1.002889872E-2,-3.819495440E-3,1.135826111E-3,1.079154557E-2
6.528565364E0,-5.245968699E-3,-1.339031011E-2,1.128196716E-3,1.442544350E-2
6.533585833E0,4.245609045E-3,-1.338436082E-2,1.120567322E-3,1.408623377E-2
6.538606302E0,-6.392598152E-4,-2.287545800E-2,-3.634452820E-3,2.317119935E-2
6.543626771E0,-5.431860685E-3,-2.268547565E-2,-3.602981567E-3,2.360333434E-2
6.548647239E0,-1.018422842E-2,-3.556195647E-3,5.926132202E-3,1.230788686E-2
6.553667708E0,-6.515085697E-4,-3.632199019E-3,-8.366584778E-3,9.144237200E-3
6.558688177E0,-1.019161940E-2,-8.458588272E-3,1.201629639E-3,1.329889978E-2
6.563708646E0,-1.970471442E-2,-1.324224100E-2,-8.302688599E-3,2.515089173E-2
6.568729114E0,-1.009261608E-2,-1.323752478E-2,-8.231163025E-3,1.857000286E-2
6.573749583E0,-1.005734503E-2,-8.485607803E-3,6.084442139E-3,1.449745374E-2
6.578770052E0,-5.222603679E-3,-8.571144193E-3,6.034851074E-3,1.171151269E-2
6.583790521E0,-9.976714849E-3,-3.804985434E-3,1.237869263E-3,1.074918944E-2
6.588810989E0,-9.994283319E-3,-8.576810360E-3,-3.518104553E-3,1.363174364E-2
6.593831458E0,-1.945714653E-2,-1.330760866E-2,1.261711121E-3,2.360645916E-2
6.598851927E0,-9.899273515E-3,-3.752220422E-3,-3.494262695E-3,1.114830238E-2
6.603872396E0,-5.169287324E-3,9.219050407E-4,-3.461837769E-3,6.289337094E-3
6.608892864E0,-1.947273314E-2,-8.636545390E-3,-3.430366516E-3,2.157648411E-2
6.613913333E0,-5.114376545E-3,-1.816595346E-2,1.348495483E-3,1.892028416E-2
6.618933802E0,-9.869679809E-3,-8.621953428E-3,6.087303162E-3,1.445004914E-2
6.623954271E0,-1.458568871E-2,-8.601360023E-3,1.290321350E-3,1.698206815E-2
6.628974739E0,-1.451356709E-2,-1.807919517E-2,-1.296424866E-2,2.656261792E-2
6.633995208E0,-1.444205642E-2,-3.839280456E-3,-3.356933594E-3,1.531607231E-2
6.639015677E0,-4.874110222E-3,-3.911662847E-3,1.420974731E-3,6.409151728E-3
6.644036146E0,-9.631410241E-3,-1.817708090E-2,-3.337860107E-3,2.084014499E-2
6.649056614E0,-9.600579739E-3,-1.332962513E-2,-8.056640625E-3,1.829643396E-2
6.654077083E0,-4.873380065E-3,-3.722187132E-3,-3.237724304E-3,6.934505676E-3
6.659097552E0,-4.985630512E-3,-1.793857291E-2,6.290435791E-3,1.965244240E-2
6.664118021E0,-9.793877602E-3,-1.309309900E-2,-8.004188538E-3,1.820484315E-2
6.669138489E0,-1.925870776E-2,-1.308836788E-2,-3.187179565E-3,2.350236822E-2
6.674158958E0,-9.650915861E-3,-1.777904853E-2,-3.158569336E-3,2.047465028E-2
6.679179427E0,-4.871428013E-3,-1.293490455E-2,1.618385315E-3,1.391624006E-2
6.684199896E0,-9.628161788E-3,-3.436997533E-3,1.606941223E-3,1.034875411E-2
6.689220364E0,-1.429341733E-2,1.233249903E-3,-1.265144348E-2,1.912803457E-2
6.694240833E0,-9.474918246E-3,-3.631155938E-3,-7.795333862E-3,1.279556952E-2
6.699261302E0,-5.184113979E-5,-8.351299912E-3,-2.978324890E-3,8.866640676E-3
6.704281771E0,-4.901200533E-3,-8.334215730E-3,1.797676086E-3,9.834254309E-3
6.709302239E0,-1.445867121E-2,-1.306577772E-2,-2.963066101E-3,1.971160778E-2
6.714322708E0,-1.936703920E-4,-1.770729572E-2,-2.935409546E-3,1.794999886E-2
6.719343177E0,-5.041852593E-3,-1.756038144E-2,1.840591431E-3,1.836232694E-2
6.724363646E0,4.396155477E-3,-1.271931455E-2,6.576538086E-3,1.497858467E-2
6.729384114E0,-1.468361914E-2,-7.970448583E-3,6.524085999E-3,1.793600903E-2
6.734404583E0,-1.461039484E-2,-1.270629838E-2,6.471633911E-3,2.041557497E-2
6.739425052E0,-9.841412306E-3,-1.745328680E-2,1.116943359E-2,2.293963520E-2
6.744445521E0,-3.637075424E-4,-1.736035198E-2,1.107883453E-2,2.059744350E-2
6.749465989E0,-1.470749080E-2,-3.074560314E-3,-3.255844116E-3,1.537412527E-2
6.754486458E0,-5.137041211E-3,1.645788550E-3,6.270408630E-3,8.271386628E-3
6.759506927E0,-9.891569614E-3,6.325550377E-3,6.219863892E-3,1.328692755E-2
6.764527396E0,-3.612786531E-4,-8.130162954E-3,1.091861725E-2,1.361786601E-2
6.769547864E0,-1.465292275E-2,-8.219916373E-3,-3.416061401E-3,1.714481396E-2
6.774568333E0,-9.831130505E-3,-1.775530726E-2,1.362800598E-3,2.034107392E-2
6.779588802E0,-9.798333049E-3,-8.164118975E-3,-8.143424988E-3,1.513193774E-2
6.784609271E0,-2.685338259E-4,-3.454472870E-3,6.172180176E-3,7.078227274E-3
6.789629739E0,-5.115792155E-3,-1.302832738E-2,1.375198364E-3,1.406413219E-2
6.794650208E0,-1.936811209E-2,-1.297227293E-2,-1.288032532E-2,2.663280705E-2
6.799670677E0,-9.810984135E-3,-1.291668043E-2,-3.273010254E-3,1.654716408E-2
6.804691146E0,-1.457962394E-2,-8.110538125E-3,-3.242492676E-3,1.699588249E-2
6.809711614E0,-9.810894728E-3,-8.147329092E-3,1.535415649E-3,1.284484830E-2
6.814732083E0,-9.778276086E-3,-1.293357089E-2,-1.272106171E-2,2.060867172E-2
6.819752552E0,-3.010928631E-4,-1.762679592E-2,-7.863998413E-3,1.930380953E-2
6.824773021E0,-9.896874428E-3,-1.278392226E-2,-7.795333862E-3,1.794837100E-2
6.829793489E0,-1.461206377E-2,-7.930789143E-3,1.126480103E-2,2.008246912E-2
6.834813958E0,-9.842768312E-3,-7.866602391E-3,-3.071784973E-3,1.296917053E-2
6.839834427E0,-1.455840468E-2,-1.729994640E-2,6.451606750E-3,2.351294371E-2
6.844854896E0,-9.789556265E-3,-1.726141199E-2,1.651763916E-3,1.991281195E-2
6.849875364E0,-2.405449748E-2,-2.977699041E-3,1.641273499E-3,2.429360655E-2
6.854895833E0,-1.445806026E-2,1.689977944E-3,-3.118515015E-3,1.488679509E-2
6.859916302E0,-4.941552877E-3,-1.262337342E-2,-3.089904785E-3,1.390381289E-2
6.864936771E0,-9.749576449E-3,-7.824696600E-3,6.435394287E-3,1.406038468E-2
6.869957239E0,-9.769335389E-3,-3.064755350E-3,1.113319397E-2,1.512549660E-2
6.874977708E0,-9.788930416E-3,-1.728662103E-2,-3.202438354E-3,2.012227713E-2
6.879998177E0,-9.756490588E-3,-7.699333131E-3,1.574516296E-3,1.252788653E-2
6.885018646E0,-5.027994514E-3,-1.248805225E-2,-3.184318542E-3,1.383372916E-2
6.890039114E0,4.357725382E-3,-1.248836145E-2,1.584053040E-2,2.063665054E-2
6.895059583E0,-1.477389038E-2,-2.991665155E-3,6.214141846E-3,1.630439990E-2
6.900080052E0,-5.062520504E-4,-1.251750812E-2,6.165504456E-3,1.396272702E-2
6.905100521E0,-6.027370691E-4,-7.667854428E-3,6.116867065E-3,9.827275625E-3
6.910120989E0,4.101648927E-3,1.787405461E-3,-3.429412842E-3,5.637305619E-3
6.915141458E0,-7.820278406E-4,1.718740910E-3,1.350402832E-3,2.321470583E-3
6.920161927E0,-1.512172818E-2,-1.264797896E-2,6.090164185E-3,2.063318043E-2
6.925182396E0,-5.599692464E-3,1.649152488E-3,1.294136047E-3,5.979217986E-3
6.930202864E0,-1.035065949E-2,-7.863491774E-3,6.032943726E-3,1.433063379E-2
6.935223333E0,-1.506236196E-2,-3.153838217E-3,1.073265076E-2,1.876196246E-2
6.940243802E0,-5.488961935E-3,-7.981695235E-3,5.896568298E-3,1.134044442E-2
6.945264271E0,-5.492359400E-3,-7.968951017E-3,1.100540161E-3,9.740707404E-3
6.950284739E0,-5.495429039E-3,-8.009441197E-3,-1.790046692E-2,2.036608957E-2
6.955305208E0,-1.024726033E-2,1.448664814E-3,-8.252143860E-3,1.323642143E-2
6.960325677E0,-1.495952904E-2,-3.417540342E-3,6.064414978E-3,1.649982485E-2
6.965346146E0,-1.968406141E-2,-3.495957702E-3,6.016731262E-3,2.087786026E-2
6.970366614E0,-1.012401283E-2,-3.572460264E-3,1.220703125E-3,1.080500922E-2
6.975387083E0,-1.008878648E-2,-8.396830410E-3,-3.536224365E-3,1.359394190E-2
6.980407552E0,-5.305349827E-3,-1.318099722E-2,-3.504753113E-3,1.463450440E-2
6.985428021E0,-1.005876064E-2,-8.376423270E-3,6.023406982E-3,1.440918333E-2
6.990448489E0,-5.327448249E-3,-3.663752228E-3,5.975723267E-3,8.804206596E-3
6.995468958E0,-5.332186818E-3,1.009635627E-3,1.542472839E-2,1.635156954E-2
7.000489427E0,-1.013724506E-2,-3.801044077E-3,-3.694534302E-3,1.143946053E-2
7.005509896E0,-1.485072076E-2,-1.331888884E-2,5.835533142E-3,2.078437284E-2
7.010530364E0,-1.002787054E-2,-2.275741100E-2,-3.707885742E-3,2.514371412E-2
7.015550833E0,-1.004530489E-2,-8.427903056E-3,1.074790955E-3,1.315647658E-2
7.020571302E0,-5.262523890E-3,1.138679683E-3,1.067161560E-3,5.489042075E-3
7.025591771E0,-1.481698453E-2,-3.671817482E-3,1.055812836E-2,1.856069365E-2
7.030612239E0,-5.245923996E-3,-1.324260980E-2,5.723953247E-3,1.535089814E-2
7.035632708E0,4.193484783E-3,-8.488137275E-3,9.307861328E-4,9.513156776E-3
7.040653177E0,-5.439445376E-3,-3.670804203E-3,9.260177612E-4,6.627207435E-3
7.045673646E0,-1.019203663E-2,-3.692727536E-3,9.202957153E-4,1.087937459E-2
7.050694114E0,-1.015652716E-2,-8.566711098E-3,-3.833770752E-3,1.382900507E-2
7.055714583E0,-5.372226238E-3,-3.853719682E-3,1.044559479E-2,1.236213657E-2
7.060735052E0,-1.017695665E-2,-3.927245736E-3,-8.632659912E-3,1.391102164E-2
7.065755521E0,-1.494136453E-2,-3.949549049E-3,-8.558273315E-3,1.766599428E-2
7.070775989E0,-1.011745632E-2,-4.022277892E-3,-8.484840393E-3,1.380341111E-2
7.075796458E0,-1.488296688E-2,6.553567946E-4,-3.663063049E-3,1.534112859E-2
7.080816927E0,-1.486024261E-2,-1.369998604E-2,-8.378028870E-3,2.187939203E-2
7.085837396E0,-1.014104486E-2,-2.313533053E-2,1.192092896E-3,2.528844390E-2
7.090857864E0,-5.409330130E-3,-1.349805295E-2,1.543045044E-2,2.120276130E-2
7.095878333E0,-7.173418999E-4,-3.991685808E-3,-3.688812256E-3,5.482287009E-3
7.100898802E0,-5.508989096E-3,-8.812561631E-3,1.091957092E-3,1.045000352E-2
7.105919271E0,-1.031257212E-2,-4.044391215E-3,5.834579468E-3,1.251992658E-2
7.110939739E0,-5.527272820E-3,-8.812960237E-3,5.787849426E-3,1.190454594E-2
7.115960208E0,-1.507923007E-2,-4.044786096E-3,1.049137115E-2,1.880990013E-2
7.120980677E0,-1.030573249E-2,-1.361498609E-2,1.040649414E-2,1.999677696E-2
7.126001146E0,-7.719993591E-4,-4.110161215E-3,1.032161713E-2,1.113665966E-2
7.131021614E0,-8.665621281E-4,5.669444799E-4,5.490303040E-3,5.587108683E-3
7.136042083E0,-1.045764983E-2,-4.290655255E-3,-4.049301147E-3,1.200703969E-2
7.141062552E0,-1.047180593E-2,-9.055916220E-3,-8.761405945E-3,1.638385096E-2
7.146083021E0,-1.528595388E-2,-1.383459195E-2,-3.934860229E-3,2.098903155E-2
7.151103489E0,-1.531174779E-2,-1.382368430E-2,5.599975586E-3,2.137530338E-2
7.156123958E0,-1.053601503E-2,-9.016279131E-3,5.556106567E-3,1.493891637E-2
7.161144427E0,-1.054921746E-2,-2.324041724E-2,7.638931274E-4,2.553402662E-2
7.166164896E0,-1.056230068E-2,-1.835201681E-2,-8.736610413E-3,2.290604894E-2
7.171185364E0,3.722071648E-3,-8.755858988E-3,8.354187012E-4,9.550749100E-3
7.176205833E0,3.693789244E-3,7.603317499E-4,-1.341724396E-2,1.393716681E-2
7.181226302E0,-1.063160598E-2,-8.744910359E-3,-1.805305481E-2,2.270280359E-2
7.186246771E0,-5.895808339E-3,-2.297004685E-2,1.093864441E-3,2.373984304E-2
7.191267239E0,-5.896106362E-3,-2.283113822E-2,2.008056641E-2,3.097182736E-2
7.196287708E0,3.600880504E-3,-1.799802110E-2,1.041793823E-2,2.110517806E-2
7.201308177E0,-5.975246429E-3,-1.795368269E-2,-3.912925720E-3,1.932224831E-2
7.206328646E0,-6.078332663E-3,-1.780597493E-2,5.620002747E-3,1.963627516E-2
7.211349114E0,-1.562599838E-2,-1.301347837E-2,-3.920555115E-3,2.070973677E-2
7.216369583E0,-2.509377897E-2,-8.262176067E-3,-3.885269165E-3,2.670311991E-2
7.221390052E0,-2.503784001E-2,-8.349571377E-3,-3.848075867E-3,2.667239139E-2
7.226410521E0,-2.967868745E-2,-8.385635912E-3,5.683898926E-3,3.136000774E-2
7.231430989E0,-1.528717577E-2,1.076862216E-3,-3.857612610E-3,1.580311838E-2
7.236451458E0,-1.051256061E-2,5.815748125E-3,-1.331996918E-2,1.793762625E-2
7.241471927E0,-1.527447999E-2,-1.328048855E-2,-3.708839417E-3,2.057757529E-2
7.246492396E0,-1.519632339E-2,-1.322358847E-2,1.072883606E-3,2.017281874E-2
7.251512864E0,-1.042217016E-2,-3.722023219E-3,-3.682136536E-3,1.166332788E-2
7.256533333E0,-1.513297856E-2,9.518526495E-4,-3.649711609E-3,1.559594365E-2
7.261553802E0,-1.980449259E-2,8.382834494E-4,5.879402161E-3,2.067578332E-2
7.266574271E0,-6.945729256E-4,-8.771337569E-3,1.532936096E-2,1.767507006E-2
7.271594739E0,-5.486413836E-3,-1.830088347E-2,1.045513153E-2,2.177918382E-2
7.276615208E0,-1.029019058E-2,-3.956645727E-3,1.511955261E-2,1.871213346E-2
7.281635677E0,-1.500239968E-2,-8.724689484E-3,5.498886108E-3,1.820521769E-2
7.286656146E0,-5.481362343E-3,-8.705757558E-3,7.076263428E-4,1.031194855E-2
7.291676614E0,-1.503401995E-2,-8.685722947E-3,7.047653198E-4,1.737700299E-2
7.296697083E0,-1.500973105E-2,5.526516587E-3,-4.046440125E-3,1.649872994E-2
7.301717552E0,-1.973444223E-2,-4.120919853E-3,-1.350688934E-2,2.426656652E-2
7.306738021E0,-1.492278278E-2,-1.838459447E-2,-1.339149475E-2,2.720321472E-2
7.311758489E0,-1.489971578E-2,7.100924850E-4,-3.780364990E-3,1.538820721E-2
7.316778958E0,-1.012831926E-2,6.516613066E-4,-3.746032715E-3,1.081851536E-2
7.321799427E0,4.152432084E-3,5.924627185E-4,1.035690308E-3,4.320458158E-3
7.326819896E0,4.016831517E-3,-4.214741290E-3,-1.321601868E-2,1.444168028E-2
7.331840364E0,-5.563065410E-3,5.163662136E-4,1.141548157E-3,5.702408527E-3
7.336860833E0,-1.981136203E-2,-4.290200770E-3,5.882263184E-3,2.110679768E-2
7.341881302E0,-1.019838452E-2,-2.330222353E-2,5.835533142E-3,2.609701354E-2
7.346901771E0,-5.414336920E-3,-2.321241796E-2,-3.707885742E-3,2.412218499E-2
7.351922239E0,-7.217228413E-4,1.011487842E-2,-1.317119598E-2,1.662263676E-2
7.356942708E0,-1.506222785E-2,-4.216808826E-3,-1.305866241E-2,2.037598705E-2
7.361963177E0,-1.508927345E-2,5.117990077E-4,-8.197784424E-3,1.717998199E-2
7.366983646E0,-1.506422460E-2,-4.295989871E-3,1.370429993E-3,1.572464531E-2
7.372004114E0,-1.503969729E-2,-9.166192263E-3,-3.385543823E-3,1.793525807E-2
7.377024583E0,-5.466774106E-3,-1.394268870E-2,1.089000702E-2,1.851692308E-2
7.382045052E0,-1.976773143E-2,-9.131766856E-3,1.304626465E-3,2.181408769E-2
7.387065521E0,-1.490393281E-2,-1.385668665E-2,1.296043396E-3,2.039153517E-2
7.392085989E0,-5.332142115E-3,-1.379372925E-2,1.287460327E-3,1.484440164E-2
7.397106458E0,8.856773376E-3,-9.035915136E-3,-3.468513489E-3,1.311948104E-2
7.402126927E0,-5.563527346E-3,3.788769245E-4,-8.184432983E-3,9.903601744E-3
7.407147396E0,-1.036635041E-2,-9.280037135E-3,-8.112907410E-3,1.610588640E-2
7.412167864E0,-9.361356497E-4,-1.400371268E-2,1.455307007E-3,1.411021748E-2
7.417188333E0,-1.052632928E-2,-9.140413254E-3,6.194114685E-3,1.525509159E-2
7.422208802E0,-1.042619348E-3,-9.118013084E-3,-3.351211548E-3,9.770150282E-3
7.427229271E0,-1.083061099E-3,-1.859280095E-2,-1.756668091E-2,2.560182701E-2
7.432249739E0,-1.123458147E-3,-1.849036664E-2,-3.172874451E-3,1.879422648E-2
7.437270208E0,-1.546061039E-2,-4.248280078E-3,1.605987549E-3,1.611389317E-2
7.442290677E0,-1.068454981E-2,-9.065754712E-3,-1.265048981E-2,1.887809327E-2
7.447311146E0,-2.019383013E-2,4.024207592E-4,-3.045082092E-3,2.042609221E-2
7.452331614E0,-5.881026387E-3,5.093801767E-3,6.480216980E-3,1.012553702E-2
7.457352083E0,-1.132652164E-3,-1.404828578E-2,6.427764893E-3,1.549042917E-2
7.462372552E0,-1.224219799E-3,-9.340215474E-3,1.629829407E-3,9.560056648E-3
7.467393021E0,-1.315012574E-3,-1.411652192E-2,6.367683411E-3,1.554197032E-2
7.472413489E0,-6.153553724E-3,-9.407881647E-3,-3.178596497E-3,1.168237716E-2
7.477433958E0,-6.151705980E-3,-4.633486271E-3,6.346702576E-3,9.979645038E-3
7.482454427E0,-6.150171161E-3,-1.414312422E-2,6.296157837E-3,1.665815631E-2
7.487474896E0,-6.200209260E-3,1.677311957E-4,1.099491119E-2,1.262373957E-2
7.492495364E0,-1.501038671E-3,-9.384438396E-3,-3.339767456E-3,1.007347248E-2
7.497515833E0,-1.108650863E-2,-9.360007942E-3,-3.309249878E-3,1.488192048E-2
7.502536302E0,-2.059182525E-2,-1.413740963E-2,-3.278732300E-3,2.519205636E-2
7.507556771E0,-1.577302814E-2,-9.375467896E-3,-7.997512817E-3,2.001619410E-2
7.512577239E0,-1.445502043E-3,-9.401712567E-3,-1.267719269E-2,1.584906590E-2
7.517597708E0,-1.534745097E-3,-4.627369344E-3,1.676559448E-3,5.155467112E-3
7.522618177E0,-1.586845517E-2,-1.893994585E-2,6.413459778E-3,2.552766900E-2
7.527638646E0,-2.058540285E-2,-2.363751456E-2,-1.263141632E-2,3.379413534E-2
7.532659114E0,-6.269335747E-3,-1.874580234E-2,1.722335815E-3,1.984127307E-2
7.537679583E0,-1.106658578E-2,-1.869522408E-2,6.459236145E-3,2.266500509E-2
7.542700052E0,-1.526191831E-3,-9.149331599E-3,-3.089904785E-3,9.776862575E-3
7.547720521E0,-2.055630088E-2,-1.867698506E-2,-7.810592651E-3,2.885128479E-2
7.552740989E0,-1.098898053E-2,-1.857511327E-2,1.754760742E-3,2.165344571E-2
7.557761458E0,-1.099869609E-2,-8.975829929E-3,6.491661072E-3,1.561020506E-2
7.562781927E0,-6.207674742E-3,-8.902937174E-3,-3.058433533E-3,1.127614880E-2
7.567802396E0,-6.205081940E-3,-1.843137667E-2,-1.252841949E-2,2.313395735E-2
7.572822864E0,-2.044771612E-2,-4.087314010E-3,1.823425293E-3,2.093179663E-2
7.577843333E0,-6.080940366E-3,-8.803661913E-3,6.557464600E-3,1.254920877E-2
7.582863802E0,3.417596221E-3,-8.732203394E-3,1.755714417E-3,9.540119138E-3
7.587884271E0,-1.095737517E-2,7.319301367E-4,1.744270325E-3,1.111945463E-2
7.592904739E0,-6.166696548E-3,-1.832193509E-2,1.731872559E-3,1.940929762E-2
7.597925208E0,-1.566115022E-2,-1.822428405E-2,6.467819214E-3,2.488430913E-2
7.602945677E0,-6.082758307E-3,-1.342955604E-2,1.667022705E-3,1.483684228E-2
7.607966146E0,-1.557852328E-2,-8.621647954E-3,1.654624939E-3,1.788186189E-2
7.612986614E0,-6.052970886E-3,-1.329894736E-2,1.644134521E-3,1.470386466E-2
7.618007083E0,-1.085232198E-2,-1.324062794E-2,6.381988525E-3,1.827065676E-2
7.623027552E0,-1.365900040E-3,1.061443239E-3,6.331443787E-3,6.563499455E-3
7.628048021E0,-1.570104063E-2,-3.801535815E-3,1.103019714E-2,1.956117584E-2
7.633068489E0,-6.174474955E-3,-1.331937313E-2,-3.304481506E-3,1.504823709E-2
7.638088958E0,-1.092064381E-2,-3.765147179E-3,-1.277160645E-2,1.722064823E-2
7.643109427E0,-1.082690060E-2,9.609535336E-4,-7.916450500E-3,1.344676157E-2
7.648129896E0,-1.078580320E-2,-3.849320114E-3,-3.100395203E-3,1.186436962E-2
7.653150364E0,-1.248061657E-3,-1.811651140E-2,-3.072738647E-3,1.841758307E-2
7.658170833E0,-1.287087798E-3,-3.772545606E-3,6.451606750E-3,7.583661715E-3
7.663191302E0,-1.377359033E-3,-8.595246822E-3,-3.096580505E-3,9.239274682E-3
7.668211771E0,-1.415312290E-3,-8.576124907E-3,1.679420471E-3,8.852879781E-3
7.673232239E0,-1.100151241E-2,-8.558426052E-3,-3.080368042E-3,1.427475390E-2
7.678252708E0,-1.575936377E-2,-1.323751360E-2,-3.051757812E-3,2.080631007E-2
7.683273177E0,-1.572874188E-2,-1.318223402E-2,-7.772445679E-3,2.194482916E-2
7.688293646E0,-6.201937795E-3,-1.312488690E-2,-7.704734802E-3,1.643440376E-2
7.693314114E0,-6.199091673E-3,-1.781904325E-2,-7.638931274E-3,2.035436835E-2
7.698334583E0,-6.196573377E-3,-3.426957875E-3,-7.574081421E-3,1.036861954E-2
7.703355052E0,-1.099413633E-2,-3.505297005E-3,-2.759933472E-3,1.186487984E-2
7.708375521E0,-1.095135510E-2,-3.582984209E-3,6.761550903E-3,1.335995977E-2
7.713395989E0,-1.090952754E-2,-1.315450296E-2,1.958847046E-3,1.720162263E-2
7.718416458E0,-6.119251251E-3,-8.402012289E-3,1.618957520E-2,1.923905900E-2
7.723436927E0,-6.117388606E-3,-1.313426718E-2,1.811027527E-3,1.460175464E-2
7.728457396E0,-6.167411804E-3,-8.381944150E-3,-2.949714661E-3,1.081641219E-2
7.733477864E0,-6.217017770E-3,-1.311436668E-2,-7.670402527E-3,1.641563274E-2
7.738498333E0,-1.101469994E-2,-1.780734584E-2,-2.855300903E-3,2.113239039E-2
7.743518802E0,-6.223246455E-3,-1.296548918E-2,-2.829551697E-3,1.465738957E-2
7.748539271E0,3.276169300E-3,-1.771030948E-2,1.944541931E-3,1.811545170E-2
7.753559739E0,-1.548767090E-3,-1.291986182E-2,-2.818107605E-3,1.331402417E-2
7.758580208E0,-2.063086629E-2,1.327671111E-3,-2.791404724E-3,2.086114318E-2
7.763600677E0,-1.106292009E-2,-3.537520766E-3,1.622867584E-2,1.995675760E-2
7.768621146E0,-1.574739814E-3,1.063181832E-2,1.851081848E-3,1.090604742E-2
7.773641614E0,-1.115931571E-2,-3.861032426E-3,-7.658004761E-3,1.407419395E-2
7.778662083E0,-1.591555774E-2,-1.348462328E-2,-2.841949463E-3,2.105271289E-2
7.783682552E0,-1.108354330E-2,-1.822638139E-2,6.680488586E-3,2.235340776E-2
7.788703021E0,-1.098874211E-2,-8.630003780E-3,6.625175476E-3,1.546358201E-2
7.793723489E0,-2.049519122E-2,-8.663721383E-3,-7.672309875E-3,2.353672173E-2
7.798743958E0,-6.179884076E-3,-1.814229041E-2,1.891136169E-3,1.925902554E-2
7.803764427E0,-6.229385734E-3,-1.804487407E-2,-2.870559692E-3,1.930447720E-2
7.808784896E0,-1.529678702E-3,1.044463366E-3,6.652832031E-3,6.905866687E-3
7.813805364E0,-1.617640257E-3,-1.806513220E-2,-2.896308899E-3,1.836720901E-2
7.818825833E0,-1.120185852E-2,-1.796962321E-2,1.878738403E-3,2.125837836E-2
7.823846302E0,-1.115734875E-2,-2.262341231E-2,1.865386963E-3,2.529396933E-2
7.828866771E0,-2.061082423E-2,-1.299039274E-2,1.609706879E-2,2.920054798E-2
7.833887239E0,-1.104363799E-2,-1.768187806E-2,-3.027915955E-3,2.106606339E-2
7.838907708E0,-1.105290651E-2,-8.090037853E-3,-7.748603821E-3,1.573709999E-2
7.843928177E0,3.235265613E-3,-3.326624632E-3,-2.933502197E-3,5.489882528E-3
7.848948646E0,-1.589328051E-3,-3.352671862E-3,-2.906799316E-3,4.713369764E-3
7.853969114E0,-1.677080989E-3,1.318130642E-3,1.136589050E-2,1.156432168E-2
7.858989583E0,-2.075782418E-2,-3.548245877E-3,6.525993347E-3,2.204690234E-2
7.864010052E0,-1.593734324E-2,-1.781794801E-2,1.726150513E-3,2.396784881E-2
7.869030521E0,-2.060216665E-2,-8.226238191E-3,-1.253223419E-2,2.547895523E-2
7.874050989E0,-1.578328013E-2,-3.513552248E-3,-1.242542267E-2,2.039235420E-2
7.879071458E0,-6.255730987E-3,-3.589905798E-3,-7.570266724E-3,1.045612414E-2
7.884091927E0,-1.100152731E-2,-1.310950145E-2,-2.757072449E-3,1.733476507E-2
7.889112396E0,-6.262645125E-3,-1.780125871E-2,6.765365601E-3,2.004683784E-2
7.894132864E0,-1.106025279E-2,-1.295692474E-2,-7.534027100E-3,1.862720201E-2
7.899153333E0,-2.056610584E-2,-3.405716270E-3,-7.468223572E-3,2.214357641E-2
7.904173802E0,-1.569506526E-2,-8.180871606E-3,-7.404327393E-3,1.918556222E-2
7.909194271E0,-1.566556096E-2,-3.416698426E-3,2.157211304E-3,1.617829376E-2
7.914214739E0,3.358006477E-3,-8.190497756E-3,-1.210308075E-2,1.499483326E-2
7.919235208E0,-6.267651916E-3,-3.480635583E-3,-2.502441406E-3,7.593450967E-3
7.924255677E0,-1.106460392E-2,-3.506660461E-3,2.269744873E-3,1.182682837E-2
7.929276146E0,-1.577006280E-2,-3.583066165E-3,-2.495765686E-3,1.636343761E-2
7.934296614E0,-6.191059947E-3,-8.406076580E-3,2.275466919E-3,1.068499398E-2
7.939317083E0,-1.568591595E-2,1.056607813E-3,1.175498962E-2,1.963018493E-2
7.944337552E0,-1.560403407E-2,-3.755722195E-3,-7.334709167E-3,1.764622585E-2
7.949358021E0,-1.226052642E-3,-1.802242920E-2,2.223014832E-3,1.820035588E-2
7.954378542E0,-1.545891166E-2,-2.262138948E-2,-7.292747498E-3,2.835294302E-2
7.959399062E0,-1.063129306E-2,-8.238621056E-3,2.266883850E-3,1.363957592E-2
