"Time (s)","Acceleration x (m/s^2)","Acceleration y (m/s^2)","Acceleration z (m/s^2)","Absolute acceleration (m/s^2)"
1.980590500E-2,1.795651275E-3,3.010708690E-1,9.685144424E0,9.689822982E0
2.231189500E-2,-2.992752008E-3,2.914940715E-1,9.627683640E0,9.632095827E0
2.482127000E-2,-1.256955881E-2,2.914940715E-1,9.622895241E0,9.627317363E0
2.733434300E-2,-1.256955881E-2,2.819172442E-1,9.709086418E0,9.713186624E0
2.985121800E-2,-6.045359373E-2,2.914940715E-1,9.795277596E0,9.799800335E0
3.237189500E-2,-6.524199992E-2,2.867056429E-1,9.828796387E0,9.833193533E0
3.489621800E-2,-5.087678507E-2,2.962824702E-1,9.824007988E0,9.828606447E0
3.742387400E-2,-6.045359373E-2,3.250128925E-1,9.785700798E0,9.791283273E0
3.995444700E-2,-7.481880486E-2,3.393780887E-1,9.790489197E0,9.796655248E0
4.248741600E-2,-7.003039867E-2,3.537433147E-1,9.838373184E0,9.844979711E0
4.502220800E-2,-8.439560980E-2,3.633201122E-1,9.852738380E0,9.859796028E0
4.755819700E-2,-8.439560980E-2,3.681085110E-1,9.900622368E0,9.907822655E0
5.009470800E-2,-7.960720360E-2,3.776853085E-1,9.895833969E0,9.903358695E0
5.262955100E-2,-8.439560980E-2,3.920505345E-1,9.871891975E0,9.880034282E0
5.515048900E-2,-5.087678507E-2,3.728969097E-1,9.833584785E0,9.840784028E0
5.767142600E-2,-4.608838260E-2,3.489548862E-1,9.828796387E0,9.835096952E0
6.019236400E-2,-6.524199992E-2,3.585317135E-1,9.838373184E0,9.845120031E0
6.271324900E-2,-4.608838260E-2,3.537433147E-1,9.838373184E0,9.844838515E0
6.523371800E-2,-3.651157767E-2,3.441664875E-1,9.833584785E0,9.839673440E0
6.775413500E-2,-6.045359373E-2,3.489548862E-1,9.833584785E0,9.839960055E0
7.027439500E-2,-5.087678507E-2,3.250128925E-1,9.843161583E0,9.848657359E0
7.279465500E-2,-7.003039867E-2,3.393780887E-1,9.828796387E0,9.834903159E0
7.531491600E-2,-8.918401599E-2,3.441664875E-1,9.833584785E0,9.840009862E0
7.783517600E-2,-7.003039867E-2,3.537433147E-1,9.804854393E0,9.811483489E0
8.035543700E-2,-9.397241473E-2,3.776853085E-1,9.780912399E0,9.788652837E0
8.287569700E-2,-1.179144308E-1,3.824737072E-1,9.804854393E0,9.813019903E0
8.539595800E-2,-8.918401599E-2,3.776853085E-1,9.804854393E0,9.812531256E0
8.791621800E-2,-1.035492271E-1,3.872621357E-1,9.814431190E0,9.822614418E0
9.043647800E-2,-1.179144308E-1,4.112041295E-1,9.814431190E0,9.823749398E0
9.295673900E-2,-1.179144308E-1,4.255693555E-1,9.800065994E0,9.810010529E0
9.547705100E-2,-1.131260321E-1,4.351461530E-1,9.804854393E0,9.815157632E0
9.799741600E-2,-1.227028370E-1,4.351461530E-1,9.790489197E0,9.800922756E0
1.005178330E-1,-1.035492271E-1,4.064157307E-1,9.795277596E0,9.804252106E0
1.030383010E-1,-8.918401599E-2,3.968389332E-1,9.795277596E0,9.803718585E0
1.055587700E-1,-1.035492271E-1,4.064157307E-1,9.766547203E0,9.775548090E0
1.080792390E-1,-7.960720360E-2,4.016273320E-1,9.785700798E0,9.794262705E0
1.105997080E-1,-7.003039867E-2,4.016273320E-1,9.756970406E0,9.765484129E0
1.131201760E-1,-7.481880486E-2,4.016273320E-1,9.742605209E0,9.751167040E0
1.156406450E-1,-5.566519126E-2,4.159925580E-1,9.756970406E0,9.765993033E0
1.181611140E-1,-7.481880486E-2,4.255693555E-1,9.742605209E0,9.752182494E0
1.206815830E-1,-7.960720360E-2,4.303577542E-1,9.737816811E0,9.747646964E0
1.232020510E-1,-5.566519126E-2,4.303577542E-1,9.733028412E0,9.742697187E0
1.257225200E-1,-7.003039867E-2,4.351461530E-1,9.737816811E0,9.747786039E0
1.282429890E-1,-7.481880486E-2,4.399345517E-1,9.761758804E0,9.771953501E0
1.307633530E-1,-7.003039867E-2,4.255693555E-1,9.761758804E0,9.771281824E0
1.332836140E-1,-7.481880486E-2,4.495113790E-1,9.766547203E0,9.777172526E0
1.358038740E-1,-6.045359373E-2,4.542997777E-1,9.761758804E0,9.772511339E0
1.383241350E-1,-4.608838260E-2,4.686649740E-1,9.771335602E0,9.782677059E0
1.408443950E-1,-5.087678507E-2,4.590881765E-1,9.790489197E0,9.801378939E0
1.433646550E-1,-5.087678507E-2,4.734533727E-1,9.828796387E0,9.840324433E0
1.458849160E-1,-3.651157767E-2,4.734533727E-1,9.857526779E0,9.868957665E0
1.484052280E-1,-5.087678507E-2,4.734533727E-1,9.843161583E0,9.854672825E0
1.509255930E-1,-4.608838260E-2,4.590881765E-1,9.828796387E0,9.839620140E0
1.534459580E-1,-4.129998013E-2,4.734533727E-1,9.819219589E0,9.830713968E0
1.559663220E-1,-5.087678507E-2,4.782418013E-1,9.814431190E0,9.826207980E0
1.584867390E-1,-4.129998013E-2,4.878185987E-1,9.814431190E0,9.826633822E0
1.610072080E-1,-4.608838260E-2,4.878185987E-1,9.819219589E0,9.831437558E0
1.635277280E-1,-4.608838260E-2,4.926069975E-1,9.800065994E0,9.812547034E0
1.660483010E-1,-4.129998013E-2,5.069721937E-1,9.785700798E0,9.798911501E0
1.685689260E-1,-4.129998013E-2,4.973953962E-1,9.795277596E0,9.807985065E0
1.710896030E-1,-6.524199992E-2,4.973953962E-1,9.790489197E0,9.803332975E0
1.736102800E-1,-7.003039867E-2,5.117605925E-1,9.790489197E0,9.804105358E0
1.761309580E-1,-7.960720360E-2,4.973953962E-1,9.790489197E0,9.803439101E0
1.786516350E-1,-8.439560980E-2,4.926069975E-1,9.795277596E0,9.808019548E0
1.811723120E-1,-7.003039867E-2,4.878185987E-1,9.809642792E0,9.822014200E0
1.836925200E-1,-7.481880486E-2,4.926069975E-1,9.819219589E0,9.831852971E0
1.862125720E-1,-8.918401599E-2,4.926069975E-1,9.824007988E0,9.836754973E0
1.887326240E-1,-8.918401599E-2,5.069721937E-1,9.814431190E0,9.827921153E0
1.912526760E-1,-8.439560980E-2,5.069721937E-1,9.809642792E0,9.823097023E0
1.937727280E-1,-9.397241473E-2,5.213374496E-1,9.809642792E0,9.823935833E0
1.962928330E-1,-9.876082093E-2,5.069721937E-1,9.790489197E0,9.804103897E0
1.988129890E-1,-8.439560980E-2,5.069721937E-1,9.804854393E0,9.818315186E0
2.013331970E-1,-1.083376259E-1,5.021837950E-1,9.804854393E0,9.818304094E0
2.038534580E-1,-9.397241473E-2,4.973953962E-1,9.814431190E0,9.827476410E0
2.063737700E-1,-7.960720360E-2,4.878185987E-1,9.814431190E0,9.826869485E0
2.088941350E-1,-1.035492271E-1,4.973953962E-1,9.795277596E0,9.808444719E0
2.114145510E-1,-8.439560980E-2,4.926069975E-1,9.795277596E0,9.808019548E0
2.139350200E-1,-7.481880486E-2,4.686649740E-1,9.800065994E0,9.811551264E0
2.164555410E-1,-9.397241473E-2,4.638765752E-1,9.785700798E0,9.797140011E0
2.189761140E-1,-8.439560980E-2,4.542997777E-1,9.776124001E0,9.787037927E0
2.214967390E-1,-8.918401599E-2,4.590881765E-1,9.795277596E0,9.806435587E0
2.240174160E-1,-1.035492271E-1,4.495113790E-1,9.800065994E0,9.810916186E0
2.265380930E-1,-8.918401599E-2,4.399345517E-1,9.804854393E0,9.815124343E0
2.290587700E-1,-7.003039867E-2,4.399345517E-1,9.800065994E0,9.810185531E0
2.315794470E-1,-7.481880486E-2,4.542997777E-1,9.800065994E0,9.810875579E0
2.341000200E-1,-7.003039867E-2,4.351461530E-1,9.795277596E0,9.805188402E0
2.366204370E-1,-5.087678507E-2,4.399345517E-1,9.809642792E0,9.819634543E0
2.391408530E-1,-5.566519126E-2,4.303577542E-1,9.819219589E0,9.828803577E0
2.416612700E-1,-4.129998013E-2,4.207809567E-1,9.804854393E0,9.813966169E0
2.441816870E-1,-5.566519126E-2,4.016273320E-1,9.795277596E0,9.803665962E0
2.467021030E-1,-6.524199992E-2,4.064157307E-1,9.804854393E0,9.813490711E0
2.492225200E-1,-6.524199992E-2,4.064157307E-1,9.814431190E0,9.823059089E0
2.517429370E-1,-7.003039867E-2,3.872621357E-1,9.800065994E0,9.807964606E0
2.542633530E-1,-6.524199992E-2,3.824737072E-1,9.795277596E0,9.802959034E0
2.567837700E-1,-5.087678507E-2,3.728969097E-1,9.804854393E0,9.812074715E0
2.593041870E-1,-7.481880486E-2,3.776853085E-1,9.804854393E0,9.812411208E0
2.618246030E-1,-7.481880486E-2,3.728969097E-1,9.790489197E0,9.797873681E0
2.643450200E-1,-6.045359373E-2,3.441664875E-1,9.790489197E0,9.796723122E0
2.668654890E-1,-6.524199992E-2,3.441664875E-1,9.795277596E0,9.801539178E0
2.693860100E-1,-6.045359373E-2,3.441664875E-1,9.776124001E0,9.782367080E0
2.719065830E-1,-6.045359373E-2,3.345896900E-1,9.771335602E0,9.777249324E0
2.744271550E-1,-7.481880486E-2,3.489548862E-1,9.776124001E0,9.782636037E0
2.769477800E-1,-8.439560980E-2,3.393780887E-1,9.785700798E0,9.791947723E0
2.794684050E-1,-8.439560980E-2,3.393780887E-1,9.804854393E0,9.811089123E0
2.819890300E-1,-8.439560980E-2,3.345896900E-1,9.790489197E0,9.796568358E0
2.845097080E-1,-7.481880486E-2,3.345896900E-1,9.780912399E0,9.786919611E0
2.870304370E-1,-5.566519126E-2,3.298012912E-1,9.795277596E0,9.800986209E0
2.895512180E-1,-8.918401599E-2,3.489548862E-1,9.795277596E0,9.801897085E0
2.920720510E-1,-8.918401599E-2,3.441664875E-1,9.804854393E0,9.811298285E0
2.945928850E-1,-8.918401599E-2,3.250128925E-1,9.804854393E0,9.810645078E0
2.971137180E-1,-1.035492271E-1,3.058592677E-1,9.790489197E0,9.795812934E0
2.996345510E-1,-8.918401599E-2,3.154360652E-1,9.785700798E0,9.791189601E0
3.021549160E-1,-8.439560980E-2,3.058592677E-1,9.800065994E0,9.805200967E0
3.046751240E-1,-8.918401599E-2,2.962824702E-1,9.790489197E0,9.795377267E0
3.071953330E-1,-8.439560980E-2,3.106476665E-1,9.785700798E0,9.790994061E0
3.097155410E-1,-1.035492271E-1,3.058592677E-1,9.766547203E0,9.771883984E0
3.122357490E-1,-9.397241473E-2,3.106476665E-1,9.756970406E0,9.762366736E0
3.147560100E-1,-8.439560980E-2,3.202244639E-1,9.776124001E0,9.781731278E0
3.172763220E-1,-7.960720360E-2,3.202244639E-1,9.785700798E0,9.791262489E0
3.197966870E-1,-9.397241473E-2,3.202244639E-1,9.785700798E0,9.791389821E0
3.223171030E-1,-8.439560980E-2,3.202244639E-1,9.800065994E0,9.805659581E0
3.248375720E-1,-8.918401599E-2,3.058592677E-1,9.780912399E0,9.786099889E0
3.273580930E-1,-7.960720360E-2,3.250128925E-1,9.780912399E0,9.786634664E0
3.298786660E-1,-7.960720360E-2,3.345896900E-1,9.804854393E0,9.810884631E0
3.323992910E-1,-6.524199992E-2,3.250128925E-1,9.804854393E0,9.810456644E0
3.349199680E-1,-7.003039867E-2,3.298012912E-1,9.800065994E0,9.805863891E0
3.374406970E-1,-7.003039867E-2,3.250128925E-1,9.800065994E0,9.805704010E0
3.399614780E-1,-6.045359373E-2,3.106476665E-1,9.800065994E0,9.805174659E0
3.424823120E-1,-6.524199992E-2,3.250128925E-1,9.795277596E0,9.800885321E0
3.450031450E-1,-6.045359373E-2,3.250128925E-1,9.804854393E0,9.810425969E0
3.475239780E-1,-6.045359373E-2,3.154360652E-1,9.804854393E0,9.810113364E0
3.500448120E-1,-7.003039867E-2,3.154360652E-1,9.814431190E0,9.819748661E0
3.525656450E-1,-5.566519126E-2,3.250128925E-1,9.800065994E0,9.805611938E0
3.550864780E-1,-5.566519126E-2,3.298012912E-1,9.800065994E0,9.805771821E0
3.576073120E-1,-7.003039867E-2,3.298012912E-1,9.828796387E0,9.834577345E0
3.601281450E-1,-5.566519126E-2,3.154360652E-1,9.819219589E0,9.824442573E0
3.626488740E-1,-6.045359373E-2,3.154360652E-1,9.790489197E0,9.795755880E0
3.651692390E-1,-8.439560980E-2,3.202244639E-1,9.776124001E0,9.781731278E0
3.676896030E-1,-7.481880486E-2,3.393780887E-1,9.785700798E0,9.791869865E0
3.702099680E-1,-6.524199992E-2,3.345896900E-1,9.795277596E0,9.801207576E0
3.727303330E-1,-5.566519126E-2,3.202244639E-1,9.809642792E0,9.815025931E0
3.752506970E-1,-7.481880486E-2,3.298012912E-1,9.814431190E0,9.820255920E0
3.777710620E-1,-6.045359373E-2,3.537433147E-1,9.804854393E0,9.811419807E0
3.802914260E-1,-7.003039867E-2,3.441664875E-1,9.795277596E0,9.801572221E0
3.828117910E-1,-6.045359373E-2,3.585317135E-1,9.795277596E0,9.802023403E0
3.853321550E-1,-7.003039867E-2,3.298012912E-1,9.814431190E0,9.820220606E0
3.878525200E-1,-7.960720360E-2,3.393780887E-1,9.800065994E0,9.806263727E0
3.903728850E-1,-7.481880486E-2,3.250128925E-1,9.780912399E0,9.786596885E0
3.928932490E-1,-7.481880486E-2,3.345896900E-1,9.790489197E0,9.796490536E0
3.954136660E-1,-7.003039867E-2,3.489548862E-1,9.780912399E0,9.787385817E0
3.979341350E-1,-7.481880486E-2,3.537433147E-1,9.785700798E0,9.792378276E0
4.004546550E-1,-6.045359373E-2,3.345896900E-1,9.800065994E0,9.805962390E0
4.029752280E-1,-6.524199992E-2,3.441664875E-1,9.780912399E0,9.787183173E0
4.054958530E-1,-7.003039867E-2,3.537433147E-1,9.790489197E0,9.797128013E0
4.080165300E-1,-7.481880486E-2,3.393780887E-1,9.785700798E0,9.791869865E0
4.105372600E-1,-8.439560980E-2,3.345896900E-1,9.795277596E0,9.801353787E0
4.130580410E-1,-8.439560980E-2,3.489548862E-1,9.785700798E0,9.792284322E0
4.155788220E-1,-7.003039867E-2,3.537433147E-1,9.795277596E0,9.801913168E0
4.180996030E-1,-7.960720360E-2,3.585317135E-1,9.790489197E0,9.797375210E0
4.206203850E-1,-7.003039867E-2,3.537433147E-1,9.785700798E0,9.792342861E0
4.231410100E-1,-7.003039867E-2,3.537433147E-1,9.780912399E0,9.787557711E0
4.256615300E-1,-7.481880486E-2,3.633201122E-1,9.785700798E0,9.792728908E0
4.281820510E-1,-7.003039867E-2,3.537433147E-1,9.795277596E0,9.801913168E0
4.307025720E-1,-7.003039867E-2,3.489548862E-1,9.795277596E0,9.801741526E0
4.332230930E-1,-7.481880486E-2,3.489548862E-1,9.790489197E0,9.796991685E0
4.357436140E-1,-8.439560980E-2,3.681085110E-1,9.785700798E0,9.792985582E0
4.382641870E-1,-8.439560980E-2,3.633201122E-1,9.790489197E0,9.797591685E0
4.407848120E-1,-1.035492271E-1,3.633201122E-1,9.800065994E0,9.807345076E0
4.433054890E-1,-9.397241473E-2,3.681085110E-1,9.795277596E0,9.802642392E0
4.458262180E-1,-1.035492271E-1,3.681085110E-1,9.790489197E0,9.797954125E0
4.483469470E-1,-1.083376259E-1,3.633201122E-1,9.814431190E0,9.821751277E0
4.508676760E-1,-9.397241473E-2,3.728969097E-1,9.824007988E0,9.831531715E0
4.533884050E-1,-9.397241473E-2,3.776853085E-1,9.809642792E0,9.817360577E0
4.559091350E-1,-9.876082093E-2,3.920505345E-1,9.804854393E0,9.813186383E0
4.584298640E-1,-1.035492271E-1,3.920505345E-1,9.804854393E0,9.813235742E0
4.609504890E-1,-9.876082093E-2,3.968389332E-1,9.809642792E0,9.818163094E0
4.634707490E-1,-9.876082093E-2,4.016273320E-1,9.824007988E0,9.832710265E0
4.659910100E-1,-8.918401599E-2,4.112041295E-1,9.800065994E0,9.809094562E0
4.685112700E-1,-8.439560980E-2,4.064157307E-1,9.814431190E0,9.823204974E0
4.710315300E-1,-8.918401599E-2,4.064157307E-1,9.819219589E0,9.828031384E0
4.735517910E-1,-7.003039867E-2,4.159925580E-1,9.814431190E0,9.823492946E0
4.760721030E-1,-7.003039867E-2,4.207809567E-1,9.809642792E0,9.818913004E0
4.785924680E-1,-7.960720360E-2,4.159925580E-1,9.804854393E0,9.813998002E0
4.811128850E-1,-6.524199992E-2,4.255693555E-1,9.819219589E0,9.828653984E0
4.836333530E-1,-5.566519126E-2,4.351461530E-1,9.804854393E0,9.814663543E0
4.861538740E-1,-4.608838260E-2,4.255693555E-1,9.809642792E0,9.818977804E0
4.886744470E-1,-5.566519126E-2,4.351461530E-1,9.790489197E0,9.800312725E0
4.911950720E-1,-5.087678507E-2,4.255693555E-1,9.790489197E0,9.799866144E0
4.937156970E-1,-5.566519126E-2,4.399345517E-1,9.814431190E0,9.824444036E0
4.962363220E-1,-4.129998013E-2,4.447229803E-1,9.795277596E0,9.805454981E0
4.987569470E-1,-4.129998013E-2,4.447229803E-1,9.790489197E0,9.800671555E0
5.012775720E-1,-3.172317147E-2,4.447229803E-1,9.785700798E0,9.795852439E0
5.037981970E-1,-3.172317147E-2,4.495113790E-1,9.795277596E0,9.805637665E0
5.063188220E-1,-3.172317147E-2,4.542997777E-1,9.795277596E0,9.805858342E0
5.088394470E-1,-3.651157767E-2,4.495113790E-1,9.780912399E0,9.791304353E0
5.113600720E-1,-3.651157767E-2,4.447229803E-1,9.790489197E0,9.800652546E0
5.138807490E-1,-3.651157767E-2,4.590881765E-1,9.776124001E0,9.786965593E0
5.164014780E-1,-2.693476900E-2,4.590881765E-1,9.776124001E0,9.786934551E0
5.189222600E-1,-3.172317147E-2,4.734533727E-1,9.776124001E0,9.787633265E0
5.214430930E-1,-4.608838260E-2,4.782418013E-1,9.766547203E0,9.778357921E0
5.239639780E-1,-4.608838260E-2,4.782418013E-1,9.761758804E0,9.773575309E0
5.264849160E-1,-5.566519126E-2,4.734533727E-1,9.776124001E0,9.787740147E0
5.290058530E-1,-5.087678507E-2,4.638765752E-1,9.790489197E0,9.801604391E0
5.315267910E-1,-5.566519126E-2,4.590881765E-1,9.771335602E0,9.782272743E0
5.340477280E-1,-6.045359373E-2,4.638765752E-1,9.780912399E0,9.792092906E0
5.365686660E-1,-6.045359373E-2,4.590881765E-1,9.785700798E0,9.796650280E0
5.390893950E-1,-6.045359373E-2,4.782418013E-1,9.790489197E0,9.802349135E0
5.416101240E-1,-7.481880486E-2,4.782418013E-1,9.800065994E0,9.812013380E0
5.441305930E-1,-8.439560980E-2,4.590881765E-1,9.804854393E0,9.815959161E0
5.466510620E-1,-9.876082093E-2,4.542997777E-1,9.828796387E0,9.839785587E0
5.491715300E-1,-1.035492271E-1,4.399345517E-1,9.814431190E0,9.824832031E0
5.516919990E-1,-1.035492271E-1,4.351461530E-1,9.790489197E0,9.800701675E0
5.542124680E-1,-1.131260321E-1,4.303577542E-1,9.809642792E0,9.819729986E0
5.567329890E-1,-1.035492271E-1,4.399345517E-1,9.804854393E0,9.815265382E0
5.592535620E-1,-1.322796494E-1,4.447229803E-1,9.819219589E0,9.830175470E0
5.617741870E-1,-1.274912357E-1,4.255693555E-1,9.824007988E0,9.834047805E0
5.642948120E-1,-1.227028370E-1,4.399345517E-1,9.852738380E0,9.863318508E0
5.668154370E-1,-1.370680481E-1,4.207809567E-1,9.828796387E0,9.838754122E0
5.693360620E-1,-1.131260321E-1,4.159925580E-1,9.804854393E0,9.814327128E0
5.718565830E-1,-1.083376259E-1,4.159925580E-1,9.828796387E0,9.838192174E0
5.743771030E-1,-1.083376259E-1,4.255693555E-1,9.843161583E0,9.852952667E0
5.768971550E-1,-1.179144308E-1,4.207809567E-1,9.838373184E0,9.848073281E0
5.794168430E-1,-1.131260321E-1,4.159925580E-1,9.838373184E0,9.847813677E0
5.819365300E-1,-1.035492271E-1,4.255693555E-1,9.824007988E0,9.833766555E0
5.844562180E-1,-1.083376259E-1,3.920505345E-1,9.828796387E0,9.837208907E0
5.869759050E-1,-7.960720360E-2,4.159925580E-1,9.843161583E0,9.852269640E0
5.894955930E-1,-9.397241473E-2,4.064157307E-1,9.833584785E0,9.842428272E0
5.920152800E-1,-7.481880486E-2,4.064157307E-1,9.819219589E0,9.827911525E0
5.945349680E-1,-6.524199992E-2,3.968389332E-1,9.819219589E0,9.827451908E0
5.970546550E-1,-7.003039867E-2,3.968389332E-1,9.819219589E0,9.827484863E0
5.995743430E-1,-6.524199992E-2,3.920505345E-1,9.804854393E0,9.812906288E0
6.020940830E-1,-4.129998013E-2,3.728969097E-1,9.795277596E0,9.802459945E0
6.046138740E-1,-3.172317147E-2,3.824737072E-1,9.780912399E0,9.788439092E0
6.071337180E-1,-2.693476900E-2,3.872621357E-1,9.756970406E0,9.764689905E0
6.096536660E-1,-2.214636654E-2,3.728969097E-1,9.776124001E0,9.783258304E0
6.121737700E-1,-1.735796221E-2,3.681085110E-1,9.761758804E0,9.768712307E0
6.146940300E-1,-1.735796221E-2,3.824737072E-1,9.752182007E0,9.759694735E0
6.172144990E-1,-1.256955881E-2,3.633201122E-1,9.752182007E0,9.758955548E0
6.197351760E-1,-2.693476900E-2,3.633201122E-1,9.752182007E0,9.758984623E0
6.222560620E-1,-1.735796221E-2,3.681085110E-1,9.737816811E0,9.744787397E0
6.247771550E-1,-7.781155407E-3,3.776853085E-1,9.733028412E0,9.740356708E0
6.272984050E-1,-3.172317147E-2,3.824737072E-1,9.737816811E0,9.745376788E0
6.298198120E-1,-4.129998013E-2,3.872621357E-1,9.752182007E0,9.759955509E0
6.323413220E-1,-4.129998013E-2,3.681085110E-1,9.766547203E0,9.773569145E0
6.348628850E-1,-6.045359373E-2,3.728969097E-1,9.742605209E0,9.749926308E0
6.373844470E-1,-5.566519126E-2,3.824737072E-1,9.733028412E0,9.740699503E0
6.399058530E-1,-3.651157767E-2,3.728969097E-1,9.761758804E0,9.768946727E0
6.424264780E-1,-6.524199992E-2,3.633201122E-1,9.771335602E0,9.778305450E0
6.449471030E-1,-7.960720360E-2,3.393780887E-1,9.771335602E0,9.777551546E0
6.474677280E-1,-8.439560980E-2,3.537433147E-1,9.761758804E0,9.768530693E0
6.499883530E-1,-9.397241473E-2,3.585317135E-1,9.747393608E0,9.754437860E0
6.525089780E-1,-8.918401599E-2,3.393780887E-1,9.756970406E0,9.763278280E0
6.550296030E-1,-9.397241473E-2,3.537433147E-1,9.776124001E0,9.782973251E0
6.575502800E-1,-1.083376259E-1,3.681085110E-1,9.800065994E0,9.807575358E0
6.600710100E-1,-1.227028370E-1,3.776853085E-1,9.795277596E0,9.803324199E0
6.625917910E-1,-1.131260321E-1,3.776853085E-1,9.819219589E0,9.827131679E0
6.651126240E-1,-1.131260321E-1,3.728969097E-1,9.824007988E0,9.831733446E0
6.676335100E-1,-1.083376259E-1,3.681085110E-1,9.828796387E0,9.836283817E0
6.701544470E-1,-1.322796494E-1,3.728969097E-1,9.857526779E0,9.865464217E0
6.726754370E-1,-1.418564469E-1,3.681085110E-1,9.847949982E0,9.855848313E0
6.751964260E-1,-1.274912357E-1,3.585317135E-1,9.862315178E0,9.869653473E0
6.777174160E-1,-1.227028370E-1,3.728969097E-1,9.852738380E0,9.860555851E0
6.802383530E-1,-1.322796494E-1,3.585317135E-1,9.838373184E0,9.845792493E0
6.827588220E-1,-1.179144308E-1,3.681085110E-1,9.843161583E0,9.850748075E0
6.852792910E-1,-1.131260321E-1,3.633201122E-1,9.857526779E0,9.864868636E0
6.877997600E-1,-1.179144308E-1,3.633201122E-1,9.857526779E0,9.864924709E0
6.903202280E-1,-8.918401599E-2,3.728969097E-1,9.828796387E0,9.836271870E0
6.928406970E-1,-9.876082093E-2,3.681085110E-1,9.795277596E0,9.802689465E0
6.953611660E-1,-8.918401599E-2,3.633201122E-1,9.814431190E0,9.821558679E0
6.978816350E-1,-6.045359373E-2,3.776853085E-1,9.838373184E0,9.845805591E0
7.004021030E-1,-7.481880486E-2,3.681085110E-1,9.828796387E0,9.835971744E0
7.029225720E-1,-5.566519126E-2,3.441664875E-1,9.785700798E0,9.791909379E0
7.054430930E-1,-3.651157767E-2,3.298012912E-1,9.766547203E0,9.772182267E0
7.079636660E-1,-4.608838260E-2,3.202244639E-1,9.747393608E0,9.752761147E0
7.104842910E-1,-8.439560980E-2,3.345896900E-1,9.704298019E0,9.710431140E0
7.130049680E-1,-7.960720360E-2,3.537433147E-1,9.661202431E0,9.668004140E0
7.155256450E-1,-8.918401599E-2,3.681085110E-1,9.675567627E0,9.682978187E0
7.180463220E-1,-9.876082093E-2,3.776853085E-1,9.742605209E0,9.750423383E0
7.205669990E-1,-8.918401599E-2,3.968389332E-1,9.804854393E0,9.813287145E0
7.230876760E-1,-8.439560980E-2,4.016273320E-1,9.824007988E0,9.832576472E0
7.256083530E-1,-7.481880486E-2,4.016273320E-1,9.857526779E0,9.865988879E0
7.281290300E-1,-6.524199992E-2,3.968389332E-1,9.914987564E0,9.923140433E0
7.306497080E-1,-5.087678507E-2,3.824737072E-1,1.002033234E1,1.002775821E1
7.331703850E-1,-4.608838260E-2,3.537433147E-1,1.007300472E1,1.007931955E1
7.356910620E-1,-4.608838260E-2,3.585317135E-1,1.002033234E1,1.002685042E1
7.382117390E-1,-3.172317147E-2,3.728969097E-1,9.900622368E0,9.907693058E0
7.407324160E-1,1.616086066E-2,3.776853085E-1,9.776124001E0,9.783430270E0
7.432530930E-1,6.584054790E-3,3.633201122E-1,9.689932823E0,9.696743937E0
7.457735620E-1,1.137245819E-2,3.872621357E-1,9.675567627E0,9.683321238E0
7.482939260E-1,3.531447425E-2,4.016273320E-1,9.689932823E0,9.698316851E0
7.508142910E-1,6.883329898E-2,4.064157307E-1,9.689932823E0,9.698696298E0
7.533346550E-1,4.967968538E-2,4.112041295E-1,9.661202431E0,9.670077007E0
7.558550200E-1,4.489128292E-2,3.728969097E-1,9.637260437E0,9.644576510E0
7.583753850E-1,5.925649032E-2,3.728969097E-1,9.608530045E0,9.615945770E0
7.608957490E-1,4.967968538E-2,3.968389332E-1,9.584588051E0,9.592928506E0
7.634161140E-1,3.052607179E-2,3.920505345E-1,9.608530045E0,9.616573458E0
7.659365300E-1,2.094926499E-2,3.776853085E-1,9.685144424E0,9.692528441E0
7.684569990E-1,-7.781155407E-3,3.776853085E-1,9.733028412E0,9.740356708E0
7.709775200E-1,-3.172317147E-2,3.920505345E-1,9.737816811E0,9.745757345E0
7.734980930E-1,-7.481880486E-2,3.824737072E-1,9.699509621E0,9.707335931E0
7.760187180E-1,-1.035492271E-1,3.872621357E-1,9.675567627E0,9.683868200E0
7.785393950E-1,-1.418564469E-1,3.872621357E-1,9.685144424E0,9.693921690E0
7.810601240E-1,-1.801636815E-1,3.872621357E-1,9.718663216E0,9.728044285E0
7.835809050E-1,-2.232593149E-1,3.728969097E-1,9.737816811E0,9.747511122E0
7.861016870E-1,-2.519897223E-1,3.728969097E-1,9.761758804E0,9.772128012E0
7.886224680E-1,-2.759317458E-1,3.585317135E-1,9.795277596E0,9.805720090E0
7.911432490E-1,-2.807201445E-1,3.537433147E-1,9.852738380E0,9.863082263E0
7.936640300E-1,-2.998737693E-1,3.489548862E-1,9.910199165E0,9.920874018E0
7.961848120E-1,-2.855085433E-1,3.585317135E-1,9.962871552E0,9.973408127E0
7.987054370E-1,-2.855085433E-1,3.633201122E-1,9.986813545E0,9.997497758E0
8.012259580E-1,-2.759317458E-1,3.728969097E-1,1.003948593E1,1.005019742E1
8.037464780E-1,-2.615665495E-1,3.920505345E-1,1.007779312E1,1.008880741E1
8.062669990E-1,-2.376245260E-1,4.255693555E-1,1.008736992E1,1.009913890E1
8.087875200E-1,-1.945288926E-1,4.255693555E-1,1.007779312E1,1.008865030E1
8.113078330E-1,-1.849520802E-1,4.686649740E-1,1.005385113E1,1.006646793E1
8.138281450E-1,-1.466448605E-1,4.782418013E-1,1.002033234E1,1.003281018E1
8.163484580E-1,-1.131260321E-1,4.686649740E-1,9.967659950E0,9.979313065E0
8.188687700E-1,-8.918401599E-2,4.782418013E-1,9.938929558E0,9.950828597E0
8.213890830E-1,-8.439560980E-2,4.734533727E-1,9.886257172E0,9.897947342E0
8.239094470E-1,-6.524199992E-2,4.495113790E-1,9.833584785E0,9.844069622E0
8.264298640E-1,-2.693476900E-2,4.255693555E-1,9.785700798E0,9.794987232E0
8.289503330E-1,-7.781155407E-3,4.064157307E-1,9.766547203E0,9.775002740E0
8.314708530E-1,2.573766746E-2,3.920505345E-1,9.723451614E0,9.731386199E0
8.339914780E-1,6.883329898E-2,3.872621357E-1,9.709086418E0,9.717050430E0
8.365122080E-1,8.798690885E-2,3.776853085E-1,9.709086418E0,9.716828030E0
8.390330410E-1,1.262941360E-1,3.537433147E-1,9.694721222E0,9.701994852E0
8.415539780E-1,1.550245583E-1,3.681085110E-1,9.670779228E0,9.679024092E0
8.440749680E-1,1.741781682E-1,3.824737072E-1,9.665990829E0,9.675122887E0
8.465960100E-1,1.789665818E-1,4.016273320E-1,9.670779228E0,9.680769826E0
8.491171030E-1,1.837549806E-1,4.303577542E-1,9.680356026E0,9.691659635E0
8.516382490E-1,1.789665818E-1,4.542997777E-1,9.637260437E0,9.649622068E0
8.541593950E-1,1.693897694E-1,4.830302000E-1,9.618106842E0,9.631717931E0
8.566805410E-1,1.502361596E-1,4.686649740E-1,9.618106842E0,9.630690369E0
8.592016870E-1,1.406593472E-1,4.638765752E-1,9.618106842E0,9.630313897E0
8.617225200E-1,1.310825497E-1,4.734533727E-1,9.618106842E0,9.630644836E0
8.642433010E-1,1.023521200E-1,4.542997777E-1,9.646837234E0,9.658070867E0
8.667640830E-1,7.362170517E-2,4.303577542E-1,9.675567627E0,9.685413613E0
8.692848640E-1,4.010287672E-2,4.159925580E-1,9.685144424E0,9.694157033E0
8.718055930E-1,1.795651275E-3,4.207809567E-1,9.675567627E0,9.684713147E0
8.743260100E-1,-4.129998013E-2,4.016273320E-1,9.704298019E0,9.712693254E0
8.768464260E-1,-7.003039867E-2,4.064157307E-1,9.709086418E0,9.717841174E0
8.793668430E-1,-1.131260321E-1,4.255693555E-1,9.713874817E0,9.723850612E0
8.818873120E-1,-1.322796494E-1,4.255693555E-1,9.728240013E0,9.738442429E0
8.844078330E-1,-1.610100716E-1,4.399345517E-1,9.747393608E0,9.758644824E0
8.869284580E-1,-1.945288926E-1,4.447229803E-1,9.766547203E0,9.778602369E0
8.894491870E-1,-2.136825025E-1,4.734533727E-1,9.771335602E0,9.785132485E0
8.919700200E-1,-2.472013235E-1,4.734533727E-1,9.785700798E0,9.800265644E0
8.944909050E-1,-2.663549483E-1,4.686649740E-1,9.819219589E0,9.834005550E0
8.970118430E-1,-2.711433470E-1,4.686649740E-1,9.862315178E0,9.877166914E0
8.995327800E-1,-2.950853705E-1,4.590881765E-1,9.891045570E0,9.906090036E0
9.020537180E-1,-3.142389655E-1,4.255693555E-1,9.914987564E0,9.929090281E0
9.045742910E-1,-3.094505668E-1,4.064157307E-1,9.958083153E0,9.971176133E0
9.070947080E-1,-2.998737693E-1,3.824737072E-1,9.962871552E0,9.974719042E0
9.096151240E-1,-2.950853705E-1,3.585317135E-1,9.967659950E0,9.978470086E0
9.121355410E-1,-2.711433470E-1,3.345896900E-1,9.991601944E0,1.000087888E1
9.146559580E-1,-2.711433470E-1,3.250128925E-1,9.996390343E0,1.000534717E1
9.171763740E-1,-2.472013235E-1,3.298012912E-1,9.991601944E0,1.000009934E1
9.196968430E-1,-2.424129248E-1,3.345896900E-1,9.986813545E0,9.995356876E0
9.222173640E-1,-2.280477136E-1,3.393780887E-1,9.958083153E0,9.966473966E0
9.247379370E-1,-2.136825025E-1,3.585317135E-1,9.938929558E0,9.947689478E0
9.272585620E-1,-1.753752679E-1,3.681085110E-1,9.914987564E0,9.923368317E0
9.297792390E-1,-1.562216580E-1,3.776853085E-1,9.876680374E0,9.885133616E0
9.322999160E-1,-1.274912357E-1,3.824737072E-1,9.847949982E0,9.856199014E0
9.348205930E-1,-9.876082093E-2,3.776853085E-1,9.814431190E0,9.822192193E0
9.373412700E-1,-7.960720360E-2,3.776853085E-1,9.804854393E0,9.812448887E0
9.398619470E-1,-7.003039867E-2,3.728969097E-1,9.809642792E0,9.816977542E0
9.423826240E-1,-5.087678507E-2,3.681085110E-1,9.795277596E0,9.802323984E0
9.449031450E-1,-2.693476900E-2,3.633201122E-1,9.780912399E0,9.787695048E0
9.474236140E-1,-2.214636654E-2,3.681085110E-1,9.780912399E0,9.787861958E0
9.499440830E-1,1.795651275E-3,3.585317135E-1,9.742605209E0,9.749200197E0
9.524645510E-1,2.573766746E-2,3.489548862E-1,9.723451614E0,9.729745281E0
9.549850200E-1,2.573766746E-2,3.537433147E-1,9.713874817E0,9.720347767E0
9.575055410E-1,4.010287672E-2,3.728969097E-1,9.713874817E0,9.721112298E0
9.600261140E-1,3.531447425E-2,3.633201122E-1,9.718663216E0,9.725516095E0
9.625467390E-1,2.094926499E-2,3.441664875E-1,9.689932823E0,9.696065571E0
9.650674160E-1,4.010287672E-2,3.633201122E-1,9.670779228E0,9.677684673E0
9.675881450E-1,4.010287672E-2,3.824737072E-1,9.646837234E0,9.654499625E0
9.701089260E-1,3.531447425E-2,3.824737072E-1,9.646837234E0,9.654480922E0
9.726297600E-1,3.531447425E-2,3.920505345E-1,9.656414032E0,9.664433904E0
9.751506450E-1,2.094926499E-2,3.728969097E-1,9.651625633E0,9.658849224E0
9.776715830E-1,6.584054790E-3,3.776853085E-1,9.675567627E0,9.682938523E0
9.801925200E-1,6.584054790E-3,3.633201122E-1,9.685144424E0,9.691958903E0
9.827134580E-1,-7.781155407E-3,3.681085110E-1,9.699509621E0,9.706495315E0
9.852343950E-1,-1.735796221E-2,3.728969097E-1,9.704298019E0,9.711475349E0
9.877549160E-1,-3.172317147E-2,3.681085110E-1,9.694721222E0,9.701759109E0
9.902754370E-1,-2.214636654E-2,3.824737072E-1,9.723451614E0,9.730996244E0
9.927958530E-1,-3.172317147E-2,3.585317135E-1,9.742605209E0,9.749251644E0
9.953162700E-1,-4.129998013E-2,3.489548862E-1,9.747393608E0,9.753725306E0
9.978366870E-1,-6.524199992E-2,3.776853085E-1,9.771335602E0,9.778849736E0
1.000357103E0,-7.960720360E-2,3.872621357E-1,9.785700798E0,9.793684158E0
1.002877520E0,-8.918401599E-2,3.681085110E-1,9.800065994E0,9.807382482E0
1.005397937E0,-8.918401599E-2,3.633201122E-1,9.800065994E0,9.807203923E0
1.007918353E0,-8.439560980E-2,3.537433147E-1,9.809642792E0,9.816381648E0
1.010438770E0,-1.083376259E-1,3.393780887E-1,9.843161583E0,9.849606311E0
1.012959187E0,-1.322796494E-1,3.250128925E-1,9.871891975E0,9.878126465E0
1.015479603E0,-1.370680481E-1,3.202244639E-1,9.891045570E0,9.897177064E0
1.018000020E0,-1.370680481E-1,3.393780887E-1,9.891045570E0,9.897815295E0
1.020520437E0,-1.418564469E-1,3.345896900E-1,9.895833969E0,9.902504908E0
1.023040853E0,-1.322796494E-1,3.154360652E-1,9.900622368E0,9.906529215E0
1.025561322E0,-1.514332592E-1,3.298012912E-1,9.895833969E0,9.902486095E0
1.028081843E0,-1.514332592E-1,3.058592677E-1,9.895833969E0,9.901717622E0
1.030602416E0,-1.562216580E-1,3.010708690E-1,9.891045570E0,9.896859671E0
1.033123041E0,-1.657984704E-1,3.154360652E-1,9.895833969E0,9.902248178E0
1.035643666E0,-1.657984704E-1,3.202244639E-1,9.881468773E0,9.888046215E0
1.038164291E0,-1.562216580E-1,3.202244639E-1,9.876680374E0,9.883104984E0
1.040684916E0,-1.610100716E-1,3.393780887E-1,9.862315178E0,9.869466166E0
1.043205593E0,-1.466448605E-1,3.441664875E-1,9.843161583E0,9.850268282E0
1.045726322E0,-1.466448605E-1,3.489548862E-1,9.871891975E0,9.879145985E0
1.048247103E0,-1.418564469E-1,3.633201122E-1,9.847949982E0,9.855670632E0
1.050767937E0,-1.418564469E-1,3.537433147E-1,9.833584785E0,9.840967804E0
1.053288770E0,-1.274912357E-1,3.681085110E-1,9.819219589E0,9.826944145E0
1.055809603E0,-1.131260321E-1,3.489548862E-1,9.790489197E0,9.797359120E0
1.058330437E0,-1.227028370E-1,3.537433147E-1,9.790489197E0,9.797646096E0
1.060850905E0,-1.083376259E-1,3.393780887E-1,9.771335602E0,9.777827671E0
1.063371374E0,-8.918401599E-2,3.441664875E-1,9.761758804E0,9.768231125E0
1.065891739E0,-1.035492271E-1,3.537433147E-1,9.752182007E0,9.759144976E0
1.068412103E0,-9.876082093E-2,3.489548862E-1,9.752182007E0,9.758922948E0
1.070932468E0,-7.003039867E-2,3.585317135E-1,9.742605209E0,9.749451549E0
1.073452833E0,-5.566519126E-2,3.537433147E-1,9.737816811E0,9.744398862E0
1.075973197E0,-4.129998013E-2,3.633201122E-1,9.723451614E0,9.730324686E0
1.078493562E0,-4.129998013E-2,3.681085110E-1,9.737816811E0,9.744859455E0
1.081013978E0,-4.129998013E-2,3.728969097E-1,9.737816811E0,9.745041510E0
1.083534447E0,-1.735796221E-2,3.681085110E-1,9.723451614E0,9.730432492E0
1.086054968E0,-2.214636654E-2,3.633201122E-1,9.756970406E0,9.763757651E0
1.088575541E0,-7.781155407E-3,3.633201122E-1,9.752182007E0,9.758950556E0
1.091096166E0,-2.992752008E-3,3.776853085E-1,9.761758804E0,9.769062908E0
1.093616843E0,6.584054790E-3,3.633201122E-1,9.747393608E0,9.754164598E0
1.096137572E0,1.137245819E-2,3.633201122E-1,9.761758804E0,9.768524238E0
1.098658353E0,2.573766746E-2,3.633201122E-1,9.780912399E0,9.787691827E0
1.101179187E0,1.795651275E-3,3.681085110E-1,9.785700798E0,9.792622080E0
1.103700072E0,1.616086066E-2,3.633201122E-1,9.804854393E0,9.811596830E0
1.106221010E0,3.052607179E-2,3.441664875E-1,9.804854393E0,9.810940428E0
1.108741999E0,2.573766746E-2,3.489548862E-1,9.785700798E0,9.791954455E0
1.111262989E0,2.094926499E-2,3.537433147E-1,9.790489197E0,9.796900118E0
1.113783978E0,1.137245819E-2,3.728969097E-1,9.785700798E0,9.792809686E0
1.116304968E0,6.584054790E-3,3.728969097E-1,9.795277596E0,9.802375152E0
1.118825124E0,-2.992752008E-3,3.776853085E-1,9.800065994E0,9.807341568E0
1.121345280E0,-2.992752008E-3,3.776853085E-1,9.814431190E0,9.821696123E0
1.123865437E0,-2.214636654E-2,3.537433147E-1,9.809642792E0,9.816043831E0
1.126385593E0,-3.651157767E-2,3.681085110E-1,9.819219589E0,9.826184932E0
1.128905749E0,-3.172317147E-2,3.872621357E-1,9.824007988E0,9.831689136E0
1.131425958E0,-5.566519126E-2,3.872621357E-1,9.814431190E0,9.822226335E0
1.133946218E0,-6.045359373E-2,3.920505345E-1,9.809642792E0,9.817660106E0
1.136466530E0,-6.524199992E-2,3.824737072E-1,9.800065994E0,9.807743683E0
1.138986895E0,-7.481880486E-2,3.920505345E-1,9.800065994E0,9.808190198E0
1.141507312E0,-8.439560980E-2,3.776853085E-1,9.814431190E0,9.822058257E0
1.144027780E0,-9.876082093E-2,3.824737072E-1,9.824007988E0,9.831946541E0
1.146548353E0,-1.083376259E-1,3.824737072E-1,9.824007988E0,9.832047403E0
1.149069030E0,-1.370680481E-1,3.968389332E-1,9.800065994E0,9.809055117E0
1.151589812E0,-1.466448605E-1,3.968389332E-1,9.800065994E0,9.809193613E0
1.154110645E0,-1.657984704E-1,3.872621357E-1,9.800065994E0,9.809115892E0
1.156631530E0,-1.610100716E-1,3.968389332E-1,9.804854393E0,9.814202721E0
1.159152468E0,-1.657984704E-1,4.016273320E-1,9.804854393E0,9.814477231E0
1.161673458E0,-1.514332592E-1,3.968389332E-1,9.809642792E0,9.818834191E0
1.164194499E0,-1.657984704E-1,3.920505345E-1,9.814431190E0,9.823657789E0
1.166715541E0,-1.610100716E-1,4.159925580E-1,9.785700798E0,9.795862094E0
1.169236583E0,-1.657984704E-1,4.255693555E-1,9.785700798E0,9.796353328E0
1.171757572E0,-1.705868691E-1,4.064157307E-1,9.795277596E0,9.805189279E0
1.174277989E0,-1.562216580E-1,4.112041295E-1,9.819219589E0,9.829067473E0
1.176798405E0,-1.562216580E-1,4.255693555E-1,9.814431190E0,9.824895627E0
1.179318822E0,-1.514332592E-1,4.159925580E-1,9.800065994E0,9.810059905E0
1.181839239E0,-1.418564469E-1,4.159925580E-1,9.790489197E0,9.800349574E0
1.184359708E0,-1.322796494E-1,4.351461530E-1,9.814431190E0,9.824963597E0
1.186880228E0,-1.370680481E-1,4.159925580E-1,9.809642792E0,9.819415928E0
1.189400801E0,-1.035492271E-1,4.064157307E-1,9.790489197E0,9.799468093E0
1.191921374E0,-1.131260321E-1,4.159925580E-1,9.795277596E0,9.804759583E0
1.194441947E0,-1.083376259E-1,4.112041295E-1,9.819219589E0,9.828423028E0
1.196962572E0,-8.918401599E-2,4.016273320E-1,9.828796387E0,9.837402946E0
1.199483249E0,-7.960720360E-2,4.112041295E-1,9.828796387E0,9.837716430E0
1.202003978E0,-5.566519126E-2,4.207809567E-1,9.795277596E0,9.804469307E0
1.204524760E0,-4.608838260E-2,4.112041295E-1,9.795277596E0,9.804013267E0
1.207045593E0,-3.651157767E-2,4.159925580E-1,9.809642792E0,9.818527110E0
1.209566478E0,-3.172317147E-2,4.112041295E-1,9.804854393E0,9.813524589E0
1.212087416E0,-2.214636654E-2,4.159925580E-1,9.819219589E0,9.828052381E0
1.214608405E0,-1.735796221E-2,4.159925580E-1,9.809642792E0,9.818474566E0
1.217129447E0,-7.781155407E-3,4.159925580E-1,9.800065994E0,9.808894119E0
1.219650541E0,-1.256955881E-2,4.207809567E-1,9.800065994E0,9.809103328E0
1.222171635E0,-1.256955881E-2,4.255693555E-1,9.785700798E0,9.794958263E0
1.224692728E0,-1.735796221E-2,4.159925580E-1,9.780912399E0,9.789770093E0
1.227213822E0,1.616086066E-2,4.064157307E-1,9.804854393E0,9.813287145E0
1.229734603E0,-1.256955881E-2,4.303577542E-1,9.785700798E0,9.795167477E0
1.232255228E0,-1.256955881E-2,4.064157307E-1,9.776124001E0,9.784576241E0
1.234775853E0,-2.992752008E-3,4.112041295E-1,9.776124001E0,9.784768687E0
1.237296478E0,-1.735796221E-2,4.016273320E-1,9.776124001E0,9.784385841E0
1.239817103E0,-1.256955881E-2,3.968389332E-1,9.790489197E0,9.798536515E0
1.242337728E0,-2.693476900E-2,4.159925580E-1,9.771335602E0,9.780223655E0
1.244858353E0,-1.735796221E-2,4.207809567E-1,9.761758804E0,9.770838903E0
1.247378978E0,-2.693476900E-2,4.159925580E-1,9.728240013E0,9.737167403E0
1.249899603E0,-4.129998013E-2,4.159925580E-1,9.752182007E0,9.761137710E0
1.252420228E0,-5.087678507E-2,4.064157307E-1,9.771335602E0,9.779916239E0
1.254940853E0,-7.003039867E-2,4.064157307E-1,9.776124001E0,9.784818776E0
1.257461478E0,-7.003039867E-2,4.064157307E-1,9.756970406E0,9.765682234E0
1.259982103E0,-7.960720360E-2,3.968389332E-1,9.742605209E0,9.751008907E0
1.262502728E0,-7.960720360E-2,4.016273320E-1,9.771335602E0,9.779910085E0
1.265023353E0,-9.397241473E-2,4.064157307E-1,9.790489197E0,9.799371575E0
1.267543978E0,-8.918401599E-2,4.016273320E-1,9.785700798E0,9.794345226E0
1.270064603E0,-1.035492271E-1,3.872621357E-1,9.776124001E0,9.784339266E0
1.272585228E0,-1.083376259E-1,3.920505345E-1,9.780912399E0,9.789366069E0
1.275105853E0,-1.179144308E-1,3.920505345E-1,9.795277596E0,9.803829385E0
1.277626478E0,-1.274912357E-1,3.872621357E-1,9.790489197E0,9.798974675E0
1.280147103E0,-1.322796494E-1,3.681085110E-1,9.800065994E0,9.807869049E0
1.282667728E0,-1.274912357E-1,3.728969097E-1,9.800065994E0,9.807986522E0
1.285188353E0,-1.322796494E-1,3.681085110E-1,9.819219589E0,9.827007435E0
1.287708978E0,-1.370680481E-1,3.776853085E-1,9.814431190E0,9.822652057E0
1.290229603E0,-1.322796494E-1,3.872621357E-1,9.824007988E0,9.832527794E0
1.292750228E0,-1.322796494E-1,3.824737072E-1,9.843161583E0,9.851477757E0
1.295270853E0,-1.227028370E-1,3.776853085E-1,9.828796387E0,9.836815572E0
1.297791374E0,-1.179144308E-1,3.824737072E-1,9.809642792E0,9.817804319E0
1.300311895E0,-1.131260321E-1,3.728969097E-1,9.824007988E0,9.831733446E0
1.302832416E0,-1.274912357E-1,3.824737072E-1,9.852738380E0,9.860983407E0
1.305352937E0,-1.274912357E-1,3.728969097E-1,9.843161583E0,9.851047460E0
1.307873458E0,-1.179144308E-1,3.681085110E-1,9.838373184E0,9.845963366E0
1.310393978E0,-9.876082093E-2,3.728969097E-1,9.847949982E0,9.855502252E0
1.312914499E0,-1.131260321E-1,3.633201122E-1,9.838373184E0,9.845729324E0
1.315435020E0,-8.918401599E-2,3.489548862E-1,9.824007988E0,9.830608132E0
1.317955541E0,-7.960720360E-2,3.585317135E-1,9.843161583E0,9.850010774E0
1.320476062E0,-9.397241473E-2,3.537433147E-1,9.847949982E0,9.854749311E0
1.322996635E0,-8.918401599E-2,3.537433147E-1,9.809642792E0,9.816423983E0
1.325517260E0,-5.566519126E-2,3.776853085E-1,9.795277596E0,9.802714317E0
1.328037937E0,-7.003039867E-2,3.776853085E-1,9.814431190E0,9.821945329E0
1.330558666E0,-7.003039867E-2,3.633201122E-1,9.809642792E0,9.816618433E0
1.333079447E0,-5.087678507E-2,3.776853085E-1,9.800065994E0,9.807473076E0
1.335600228E0,-4.608838260E-2,3.681085110E-1,9.780912399E0,9.787945411E0
1.338121010E0,-5.087678507E-2,3.633201122E-1,9.780912399E0,9.787790216E0
1.340641791E0,-4.608838260E-2,3.537433147E-1,9.776124001E0,9.782630472E0
1.343162572E0,-4.608838260E-2,3.681085110E-1,9.766547203E0,9.773590552E0
1.345683353E0,-3.172317147E-2,3.776853085E-1,9.761758804E0,9.769113957E0
1.348204135E0,-2.693476900E-2,3.776853085E-1,9.752182007E0,9.759529987E0
1.350724916E0,-3.172317147E-2,3.681085110E-1,9.728240013E0,9.735253668E0
1.353245593E0,-2.693476900E-2,3.633201122E-1,9.723451614E0,9.730274317E0
1.355766010E0,-3.172317147E-2,3.776853085E-1,9.742605209E0,9.749974811E0
1.358286426E0,-2.693476900E-2,3.872621357E-1,9.742605209E0,9.750336082E0
1.360806843E0,-3.172317147E-2,3.728969097E-1,9.747393608E0,9.754575368E0
1.363327312E0,-4.129998013E-2,3.681085110E-1,9.752182007E0,9.759214285E0
1.365847833E0,-3.172317147E-2,3.728969097E-1,9.752182007E0,9.759360243E0
1.368368405E0,-6.045359373E-2,3.585317135E-1,9.747393608E0,9.754172532E0
1.370888978E0,-5.087678507E-2,3.633201122E-1,9.766547203E0,9.773435129E0
1.373409551E0,-4.129998013E-2,3.872621357E-1,9.771335602E0,9.779093879E0
1.375930176E0,-3.172317147E-2,3.776853085E-1,9.766547203E0,9.773898752E0
1.378450853E0,-4.129998013E-2,3.681085110E-1,9.766547203E0,9.773569145E0
1.380971583E0,-5.087678507E-2,3.681085110E-1,9.766547203E0,9.773614306E0
1.383492364E0,-5.087678507E-2,3.537433147E-1,9.795277596E0,9.801795037E0
1.386013197E0,-5.566519126E-2,3.585317135E-1,9.809642792E0,9.816350407E0
1.388534135E0,-7.960720360E-2,3.633201122E-1,9.819219589E0,9.826261352E0
1.391055176E0,-7.003039867E-2,3.681085110E-1,9.809642792E0,9.816796821E0
1.393576270E0,-6.524199992E-2,3.681085110E-1,9.804854393E0,9.811978907E0
1.396097416E0,-7.960720360E-2,3.633201122E-1,9.828796387E0,9.835831293E0
1.398618614E0,-1.035492271E-1,3.537433147E-1,9.819219589E0,9.826135055E0
1.401139812E0,-1.083376259E-1,3.728969097E-1,9.809642792E0,9.817325545E0
1.403661010E0,-1.083376259E-1,3.585317135E-1,9.814431190E0,9.821575313E0
1.406181895E0,-1.035492271E-1,3.633201122E-1,9.824007988E0,9.831269343E0
1.408702676E0,-1.035492271E-1,3.537433147E-1,9.833584785E0,9.840490156E0
1.411223458E0,-1.083376259E-1,3.489548862E-1,9.833584785E0,9.840370739E0
1.413744239E0,-1.083376259E-1,3.585317135E-1,9.819219589E0,9.826360230E0
1.416265020E0,-1.227028370E-1,3.537433147E-1,9.814431190E0,9.821570644E0
1.418785801E0,-1.179144308E-1,3.585317135E-1,9.824007988E0,9.831255350E0
1.421306583E0,-1.227028370E-1,3.633201122E-1,9.819219589E0,9.826704983E0
1.423827416E0,-1.227028370E-1,3.633201122E-1,9.819219589E0,9.826704983E0
1.426348301E0,-1.227028370E-1,3.728969097E-1,9.833584785E0,9.841417470E0
1.428869239E0,-1.179144308E-1,3.728969097E-1,9.824007988E0,9.831789708E0
1.431390228E0,-1.083376259E-1,3.681085110E-1,9.809642792E0,9.817144830E0
1.433911270E0,-1.131260321E-1,3.728969097E-1,9.824007988E0,9.831733446E0
1.436432364E0,-9.876082093E-2,3.728969097E-1,9.800065994E0,9.807655138E0
1.438953510E0,-1.035492271E-1,3.681085110E-1,9.780912399E0,9.788384631E0
1.441474708E0,-9.397241473E-2,3.728969097E-1,9.776124001E0,9.783684551E0
1.443995958E0,-1.035492271E-1,3.633201122E-1,9.790489197E0,9.797775393E0
1.446517208E0,-9.397241473E-2,3.633201122E-1,9.800065994E0,9.807248636E0
1.449038458E0,-7.960720360E-2,3.585317135E-1,9.804854393E0,9.811730325E0
1.451559708E0,-7.481880486E-2,3.776853085E-1,9.790489197E0,9.798057091E0
1.454080697E0,-7.481880486E-2,3.872621357E-1,9.790489197E0,9.798430922E0
1.456601635E0,-7.481880486E-2,3.824737072E-1,9.766547203E0,9.774319836E0
1.459122572E0,-5.566519126E-2,3.968389332E-1,9.776124001E0,9.784333407E0
1.461643405E0,-5.566519126E-2,3.824737072E-1,9.776124001E0,9.783761303E0
1.464164239E0,-5.087678507E-2,3.776853085E-1,9.766547203E0,9.773979686E0
1.466685020E0,-3.651157767E-2,3.728969097E-1,9.761758804E0,9.768946727E0
1.469205801E0,-4.129998013E-2,3.728969097E-1,9.766547203E0,9.773750665E0
1.471726583E0,-5.087678507E-2,3.728969097E-1,9.756970406E0,9.764226137E0
1.474247364E0,-4.129998013E-2,3.824737072E-1,9.766547203E0,9.774120733E0
1.476768145E0,-3.651157767E-2,3.824737072E-1,9.761758804E0,9.769316976E0
1.479288978E0,-3.651157767E-2,3.872621357E-1,9.776124001E0,9.783859439E0
1.481809864E0,-3.651157767E-2,3.872621357E-1,9.771335602E0,9.779074828E0
1.484330801E0,-2.693476900E-2,3.824737072E-1,9.766547203E0,9.774070589E0
1.486851791E0,-1.735796221E-2,3.824737072E-1,9.790489197E0,9.797972553E0
1.489372780E0,-2.693476900E-2,3.872621357E-1,9.809642792E0,9.817320874E0
1.491893770E0,-4.608838260E-2,3.920505345E-1,9.795277596E0,9.803228597E0
1.494414760E0,-5.087678507E-2,3.968389332E-1,9.780912399E0,9.789091733E0
1.496935801E0,-5.087678507E-2,3.872621357E-1,9.771335602E0,9.779139014E0
1.499456895E0,-7.960720360E-2,3.968389332E-1,9.785700798E0,9.794067518E0
1.501977989E0,-7.003039867E-2,4.016273320E-1,9.804854393E0,9.813326574E0
1.504499083E0,-6.045359373E-2,4.064157307E-1,9.804854393E0,9.813460045E0
1.507020176E0,-6.045359373E-2,4.016273320E-1,9.795277596E0,9.803694320E0
1.509541270E0,-5.566519126E-2,3.872621357E-1,9.785700798E0,9.793518810E0
1.512061635E0,-6.045359373E-2,3.920505345E-1,9.804854393E0,9.812875620E0
1.514581999E0,-7.481880486E-2,4.112041295E-1,9.814431190E0,9.823326640E0
1.517102364E0,-7.003039867E-2,4.016273320E-1,9.814431190E0,9.822895111E0
1.519622728E0,-7.960720360E-2,3.968389332E-1,9.819219589E0,9.827557773E0
1.522143145E0,-8.918401599E-2,4.159925580E-1,9.819219589E0,9.828432069E0
1.524663614E0,-8.918401599E-2,4.159925580E-1,9.790489197E0,9.799728685E0
1.527184187E0,-8.439560980E-2,4.112041295E-1,9.800065994E0,9.809052194E0
1.529704864E0,-8.918401599E-2,4.207809567E-1,9.804854393E0,9.814284491E0
1.532225645E0,-1.035492271E-1,4.207809567E-1,9.809642792E0,9.819209274E0
1.534746530E0,-9.397241473E-2,4.112041295E-1,9.804854393E0,9.813923238E0
1.537267520E0,-9.397241473E-2,4.016273320E-1,9.809642792E0,9.818310803E0
1.539788562E0,-9.876082093E-2,4.112041295E-1,9.804854393E0,9.813970257E0
1.542309655E0,-1.083376259E-1,3.968389332E-1,9.800065994E0,9.808695717E0
1.544830801E0,-1.131260321E-1,4.112041295E-1,9.804854393E0,9.814125331E0
1.547351999E0,-1.083376259E-1,4.064157307E-1,9.800065994E0,9.809087841E0
1.549873197E0,-1.179144308E-1,3.968389332E-1,9.804854393E0,9.813590302E0
1.552394395E0,-1.083376259E-1,4.016273320E-1,9.790489197E0,9.799322439E0
1.554915593E0,-9.876082093E-2,4.064157307E-1,9.790489197E0,9.799418664E0
1.557436635E0,-1.035492271E-1,4.064157307E-1,9.804854393E0,9.813820146E0
1.559957312E0,-8.918401599E-2,4.064157307E-1,9.804854393E0,9.813679086E0
1.562477885E0,-8.439560980E-2,4.064157307E-1,9.795277596E0,9.804068520E0
1.564998458E0,-8.918401599E-2,4.016273320E-1,9.785700798E0,9.794345226E0
1.567519030E0,-9.397241473E-2,3.968389332E-1,9.800065994E0,9.808547571E0
1.570039603E0,-7.481880486E-2,3.968389332E-1,9.809642792E0,9.817951451E0
1.572560176E0,-7.481880486E-2,3.968389332E-1,9.809642792E0,9.817951451E0
1.575080749E0,-7.960720360E-2,3.920505345E-1,9.804854393E0,9.813012310E0
1.577601322E0,-7.481880486E-2,4.016273320E-1,9.795277596E0,9.803793426E0
1.580121739E0,-5.566519126E-2,3.968389332E-1,9.771335602E0,9.779549028E0
1.582642155E0,-6.524199992E-2,4.016273320E-1,9.776124001E0,9.784587958E0
1.585162572E0,-6.045359373E-2,3.968389332E-1,9.785700798E0,9.793930564E0
1.587682989E0,-5.566519126E-2,4.064157307E-1,9.790489197E0,9.799079093E0
1.590203405E0,-5.087678507E-2,4.016273320E-1,9.790489197E0,9.798855631E0
1.592723874E0,-4.608838260E-2,3.968389332E-1,9.780912399E0,9.789068017E0
1.595244395E0,-5.566519126E-2,3.872621357E-1,9.785700798E0,9.793518810E0
1.597764968E0,-5.087678507E-2,3.920505345E-1,9.795277596E0,9.803252279E0
1.600285593E0,-4.608838260E-2,3.728969097E-1,9.785700798E0,9.792911536E0
1.602806270E0,-4.129998013E-2,3.824737072E-1,9.766547203E0,9.774120733E0
1.605326999E0,-4.129998013E-2,3.728969097E-1,9.776124001E0,9.783320411E0
1.607847780E0,-5.087678507E-2,3.728969097E-1,9.795277596E0,9.802504972E0
1.610368614E0,-5.566519126E-2,3.776853085E-1,9.785700798E0,9.793144792E0
1.612889447E0,-6.045359373E-2,3.824737072E-1,9.790489197E0,9.798143676E0
1.615410280E0,-5.566519126E-2,3.872621357E-1,9.795277596E0,9.803087970E0
1.617931114E0,-6.045359373E-2,3.681085110E-1,9.766547203E0,9.773668850E0
1.620451999E0,-4.608838260E-2,3.776853085E-1,9.771335602E0,9.778740705E0
1.622972937E0,-5.566519126E-2,3.824737072E-1,9.795277596E0,9.802899975E0
1.625493874E0,-6.524199992E-2,3.968389332E-1,9.790489197E0,9.798745653E0
1.628014812E0,-5.087678507E-2,3.920505345E-1,9.771335602E0,9.779329809E0
1.630535749E0,-4.129998013E-2,3.920505345E-1,9.776124001E0,9.784069183E0
1.633056687E0,-5.566519126E-2,3.776853085E-1,9.795277596E0,9.802714317E0
1.635577624E0,-4.608838260E-2,3.824737072E-1,9.790489197E0,9.798065574E0
1.638098405E0,-7.960720360E-2,3.824737072E-1,9.785700798E0,9.793495982E0
1.640618822E0,-7.003039867E-2,3.872621357E-1,9.800065994E0,9.807964606E0
1.643138926E0,-7.960720360E-2,3.728969097E-1,9.780912399E0,9.788341881E0
1.645659030E0,-7.960720360E-2,3.585317135E-1,9.780912399E0,9.787805150E0
1.648179135E0,-8.439560980E-2,3.776853085E-1,9.771335602E0,9.778996281E0
1.650699239E0,-8.439560980E-2,3.824737072E-1,9.785700798E0,9.793536076E0
1.653219343E0,-7.960720360E-2,3.776853085E-1,9.800065994E0,9.807664196E0
1.655739447E0,-9.397241473E-2,3.824737072E-1,9.800065994E0,9.807976878E0
1.658259603E0,-8.918401599E-2,3.872621357E-1,9.790489197E0,9.798551141E0
1.660779812E0,-9.397241473E-2,3.872621357E-1,9.800065994E0,9.808164776E0
1.663300124E0,-1.083376259E-1,3.872621357E-1,9.814431190E0,9.822666064E0
1.665820541E0,-1.227028370E-1,3.920505345E-1,9.809642792E0,9.818240744E0
1.668341062E0,-8.439560980E-2,3.776853085E-1,9.804854393E0,9.812488903E0
1.670861687E0,-8.439560980E-2,3.728969097E-1,9.804854393E0,9.812305763E0
1.673382416E0,-8.918401599E-2,3.728969097E-1,9.795277596E0,9.802778640E0
1.675903249E0,-1.035492271E-1,3.681085110E-1,9.795277596E0,9.802738877E0
1.678424187E0,-7.960720360E-2,3.728969097E-1,9.819219589E0,9.826620108E0
1.680945228E0,-7.960720360E-2,3.776853085E-1,9.828796387E0,9.836372396E0
1.683466322E0,-9.876082093E-2,3.824737072E-1,9.809642792E0,9.817592961E0
1.685987468E0,-1.035492271E-1,3.728969097E-1,9.800065994E0,9.807704524E0
1.688508666E0,-8.439560980E-2,3.728969097E-1,9.785700798E0,9.793166742E0
1.691029864E0,-8.918401599E-2,3.585317135E-1,9.800065994E0,9.807027698E0
1.693551062E0,-9.876082093E-2,3.633201122E-1,9.814431190E0,9.821650309E0
1.696072208E0,-8.439560980E-2,3.681085110E-1,9.804854393E0,9.812124957E0
1.698593041E0,-7.960720360E-2,3.681085110E-1,9.795277596E0,9.802515206E0
1.701113874E0,-7.960720360E-2,3.776853085E-1,9.771335602E0,9.778956127E0
1.703634551E0,-7.481880486E-2,3.872621357E-1,9.776124001E0,9.784077386E0
1.706155228E0,-6.524199992E-2,3.824737072E-1,9.795277596E0,9.802959034E0
1.708675905E0,-7.481880486E-2,3.824737072E-1,9.814431190E0,9.822165931E0
1.711196583E0,-6.045359373E-2,3.681085110E-1,9.800065994E0,9.807163301E0
1.713717260E0,-8.439560980E-2,3.728969097E-1,9.785700798E0,9.793166742E0
1.716237937E0,-6.045359373E-2,3.824737072E-1,9.780912399E0,9.788574367E0
1.718758614E0,-4.608838260E-2,3.776853085E-1,9.800065994E0,9.807449405E0
1.721279291E0,-5.087678507E-2,3.681085110E-1,9.814431190E0,9.821463838E0
1.723799968E0,-4.608838260E-2,3.681085110E-1,9.795277596E0,9.802300301E0
1.726320697E0,-6.524199992E-2,3.728969097E-1,9.776124001E0,9.783450777E0
1.728841478E0,-6.045359373E-2,3.681085110E-1,9.771335602E0,9.778453761E0
1.731362312E0,-5.566519126E-2,3.824737072E-1,9.766547203E0,9.774191988E0
1.733883145E0,-4.608838260E-2,3.728969097E-1,9.766547203E0,9.773772072E0
1.736403978E0,-4.608838260E-2,3.776853085E-1,9.771335602E0,9.778740705E0
1.738924812E0,-6.045359373E-2,3.776853085E-1,9.800065994E0,9.807527432E0
1.741445645E0,-4.608838260E-2,3.776853085E-1,9.785700798E0,9.793095039E0
1.743966478E0,-4.129998013E-2,3.681085110E-1,9.771335602E0,9.778354105E0
1.746487312E0,-6.524199992E-2,3.776853085E-1,9.766547203E0,9.774065018E0
1.749008145E0,-6.524199992E-2,3.728969097E-1,9.766547203E0,9.773881158E0
1.751528978E0,-7.960720360E-2,3.776853085E-1,9.795277596E0,9.802879509E0
1.754049812E0,-5.087678507E-2,3.776853085E-1,9.804854393E0,9.812257860E0
1.756570645E0,-7.003039867E-2,3.872621357E-1,9.795277596E0,9.803180065E0
1.759091374E0,-7.003039867E-2,3.728969097E-1,9.795277596E0,9.802623095E0
1.761612103E0,-7.003039867E-2,3.681085110E-1,9.800065994E0,9.807227010E0
1.764132728E0,-7.960720360E-2,3.824737072E-1,9.795277596E0,9.803065164E0
1.766653353E0,-7.481880486E-2,3.824737072E-1,9.780912399E0,9.788673626E0
1.769173978E0,-7.960720360E-2,3.776853085E-1,9.795277596E0,9.802879509E0
1.771694603E0,-8.439560980E-2,3.728969097E-1,9.800065994E0,9.807521003E0
1.774215228E0,-7.960720360E-2,3.728969097E-1,9.795277596E0,9.802696190E0
1.776735853E0,-8.918401599E-2,3.872621357E-1,9.790489197E0,9.798551141E0
1.779256478E0,-7.960720360E-2,3.872621357E-1,9.804854393E0,9.812822170E0
1.781777103E0,-9.397241473E-2,3.824737072E-1,9.809642792E0,9.817545959E0
1.784297624E0,-1.035492271E-1,3.872621357E-1,9.790489197E0,9.798692419E0
1.786818145E0,-1.035492271E-1,3.872621357E-1,9.804854393E0,9.813045606E0
1.789338666E0,-1.083376259E-1,3.968389332E-1,9.800065994E0,9.808695717E0
1.791859187E0,-9.876082093E-2,3.776853085E-1,9.814431190E0,9.822192193E0
1.794379708E0,-8.918401599E-2,3.681085110E-1,9.814431190E0,9.821736978E0
1.796900228E0,-1.035492271E-1,3.681085110E-1,9.790489197E0,9.797954125E0
1.799420749E0,-8.918401599E-2,3.728969097E-1,9.785700798E0,9.793209178E0
1.801941270E0,-1.035492271E-1,3.728969097E-1,9.809642792E0,9.817273871E0
1.804461791E0,-9.397241473E-2,3.728969097E-1,9.828796387E0,9.836316451E0
1.806982312E0,-8.918401599E-2,3.728969097E-1,9.814431190E0,9.821917607E0
1.809502833E0,-8.918401599E-2,3.728969097E-1,9.795277596E0,9.802778640E0
1.812023353E0,-7.960720360E-2,3.872621357E-1,9.795277596E0,9.803253156E0
1.814543874E0,-7.481880486E-2,3.872621357E-1,9.800065994E0,9.807999965E0
1.817064395E0,-7.481880486E-2,3.824737072E-1,9.795277596E0,9.803027449E0
1.819584916E0,-7.481880486E-2,3.728969097E-1,9.795277596E0,9.802658473E0
1.822105489E0,-6.524199992E-2,3.776853085E-1,9.795277596E0,9.802773377E0
1.824626114E0,-7.481880486E-2,3.872621357E-1,9.804854393E0,9.812784492E0
1.827146843E0,-7.003039867E-2,3.776853085E-1,9.795277596E0,9.802806416E0
1.829667676E0,-6.524199992E-2,3.776853085E-1,9.795277596E0,9.802773377E0
1.832188562E0,-6.524199992E-2,4.064157307E-1,9.819219589E0,9.827843284E0
1.834709499E0,-7.003039867E-2,3.968389332E-1,9.819219589E0,9.827484863E0
1.837230489E0,-7.003039867E-2,3.872621357E-1,9.800065994E0,9.807964606E0
1.839751530E0,-7.481880486E-2,3.920505345E-1,9.785700798E0,9.793836918E0
1.842272624E0,-5.566519126E-2,3.920505345E-1,9.771335602E0,9.779355893E0
1.844793770E0,-6.045359373E-2,3.920505345E-1,9.795277596E0,9.803306658E0
1.847314916E0,-5.087678507E-2,3.968389332E-1,9.785700798E0,9.793876132E0
1.849836062E0,-5.087678507E-2,3.968389332E-1,9.795277596E0,9.803444943E0
1.852357208E0,-5.087678507E-2,4.016273320E-1,9.790489197E0,9.798855631E0
1.854878353E0,-6.524199992E-2,3.920505345E-1,9.776124001E0,9.784199539E0
1.857399499E0,-5.566519126E-2,4.112041295E-1,9.785700798E0,9.794494758E0
1.859920541E0,-5.087678507E-2,4.207809567E-1,9.795277596E0,9.804443290E0
1.862441166E0,-4.129998013E-2,4.159925580E-1,9.814431190E0,9.823330143E0
1.864961791E0,-5.566519126E-2,4.112041295E-1,9.809642792E0,9.818415308E0
1.867482416E0,-6.045359373E-2,3.872621357E-1,9.785700798E0,9.793547197E0
1.870002780E0,-5.566519126E-2,3.872621357E-1,9.785700798E0,9.793518810E0
1.872523145E0,-6.045359373E-2,4.112041295E-1,9.776124001E0,9.784954979E0
1.875043510E0,-5.087678507E-2,4.016273320E-1,9.790489197E0,9.798855631E0
1.877563874E0,-6.045359373E-2,4.016273320E-1,9.795277596E0,9.803694320E0
1.880084239E0,-5.087678507E-2,3.968389332E-1,9.795277596E0,9.803444943E0
1.882604655E0,-4.608838260E-2,4.064157307E-1,9.795277596E0,9.803813598E0
1.885125124E0,-6.045359373E-2,4.112041295E-1,9.780912399E0,9.789739059E0
1.887645645E0,-6.045359373E-2,4.112041295E-1,9.800065994E0,9.808875418E0
1.890166218E0,-7.003039867E-2,3.872621357E-1,9.785700798E0,9.793610995E0
1.892686843E0,-7.003039867E-2,4.112041295E-1,9.800065994E0,9.808939116E0
1.895207520E0,-7.481880486E-2,3.968389332E-1,9.795277596E0,9.803598429E0
1.897728249E0,-7.960720360E-2,4.016273320E-1,9.804854393E0,9.813399589E0
1.900249030E0,-8.439560980E-2,4.016273320E-1,9.795277596E0,9.803871190E0
1.902769864E0,-8.918401599E-2,4.016273320E-1,9.780912399E0,9.789561056E0
1.905290749E0,-8.439560980E-2,4.207809567E-1,9.795277596E0,9.804674518E0
1.907811687E0,-7.003039867E-2,4.064157307E-1,9.814431190E0,9.823092059E0
1.910332624E0,-7.960720360E-2,4.064157307E-1,9.795277596E0,9.804028469E0
1.912853562E0,-8.439560980E-2,3.920505345E-1,9.800065994E0,9.808267927E0
1.915374499E0,-7.960720360E-2,4.016273320E-1,9.780912399E0,9.789478494E0
1.917895437E0,-8.918401599E-2,4.016273320E-1,9.809642792E0,9.818266140E0
1.920416374E0,-8.439560980E-2,4.064157307E-1,9.824007988E0,9.832773226E0
1.922937312E0,-8.439560980E-2,4.016273320E-1,9.800065994E0,9.808655393E0
1.925458249E0,-9.397241473E-2,3.920505345E-1,9.800065994E0,9.808355006E0
1.927979187E0,-9.876082093E-2,4.016273320E-1,9.795277596E0,9.804005375E0
1.930500124E0,-9.397241473E-2,3.968389332E-1,9.809642792E0,9.818116095E0
1.933021062E0,-1.035492271E-1,3.968389332E-1,9.824007988E0,9.832565104E0
1.935541999E0,-1.035492271E-1,3.872621357E-1,9.819219589E0,9.827398829E0
1.938062885E0,-8.918401599E-2,3.776853085E-1,9.795277596E0,9.802961958E0
1.940583458E0,-8.439560980E-2,3.728969097E-1,9.795277596E0,9.802736245E0
1.943103926E0,-7.003039867E-2,3.776853085E-1,9.780912399E0,9.788452268E0
1.945624395E0,-7.960720360E-2,3.968389332E-1,9.785700798E0,9.794067518E0
1.948144864E0,-8.918401599E-2,3.920505345E-1,9.795277596E0,9.803525926E0
1.950665333E0,-8.439560980E-2,3.824737072E-1,9.800065994E0,9.807889796E0
1.953185853E0,-8.439560980E-2,3.872621357E-1,9.790489197E0,9.798508728E0
1.955706426E0,-7.960720360E-2,3.776853085E-1,9.785700798E0,9.793310146E0
1.958227103E0,-8.439560980E-2,3.776853085E-1,9.795277596E0,9.802919564E0
1.960747885E0,-7.481880486E-2,3.872621357E-1,9.785700798E0,9.793646406E0
1.963268718E0,-7.003039867E-2,3.824737072E-1,9.785700798E0,9.793422819E0
1.965789603E0,-6.524199992E-2,3.920505345E-1,9.780912399E0,9.788983987E0
1.968310541E0,-6.524199992E-2,4.016273320E-1,9.776124001E0,9.784587958E0
1.970831530E0,-7.003039867E-2,3.920505345E-1,9.800065994E0,9.808154840E0
1.973352520E0,-6.045359373E-2,3.824737072E-1,9.790489197E0,9.798143676E0
1.975873510E0,-5.087678507E-2,3.920505345E-1,9.780912399E0,9.788898785E0
1.978394499E0,-5.566519126E-2,3.872621357E-1,9.785700798E0,9.793518810E0
1.980915489E0,-6.045359373E-2,3.872621357E-1,9.785700798E0,9.793547197E0
1.983436478E0,-6.524199992E-2,3.824737072E-1,9.804854393E0,9.812528335E0
1.985957468E0,-6.045359373E-2,3.776853085E-1,9.761758804E0,9.769249499E0
1.988478458E0,-6.045359373E-2,3.824737072E-1,9.771335602E0,9.779005073E0
1.990999343E0,-4.608838260E-2,3.920505345E-1,9.785700798E0,9.793659575E0
1.993520228E0,-5.566519126E-2,3.920505345E-1,9.771335602E0,9.779355893E0
1.996041114E0,-5.566519126E-2,4.016273320E-1,9.804854393E0,9.813234574E0
1.998561999E0,-7.481880486E-2,3.872621357E-1,9.795277596E0,9.803215441E0
2.001082624E0,-8.439560980E-2,3.872621357E-1,9.776124001E0,9.784155306E0
2.003603197E0,-6.045359373E-2,3.824737072E-1,9.785700798E0,9.793359019E0
2.006123770E0,-4.129998013E-2,3.824737072E-1,9.800065994E0,9.807613640E0
2.008644343E0,-6.045359373E-2,3.776853085E-1,9.790489197E0,9.797957927E0
2.011164916E0,-6.045359373E-2,3.681085110E-1,9.790489197E0,9.797593440E0
2.013685124E0,-6.524199992E-2,3.824737072E-1,9.800065994E0,9.807743683E0
2.016205333E0,-9.397241473E-2,3.776853085E-1,9.795277596E0,9.803006691E0
2.018725541E0,-7.003039867E-2,3.776853085E-1,9.800065994E0,9.807591139E0
2.021245749E0,-7.481880486E-2,3.872621357E-1,9.790489197E0,9.798430922E0
2.023765958E0,-7.960720360E-2,3.920505345E-1,9.785700798E0,9.793874669E0
2.026286218E0,-7.481880486E-2,3.920505345E-1,9.795277596E0,9.803405768E0
2.028806530E0,-1.035492271E-1,3.824737072E-1,9.804854393E0,9.812857802E0
2.031326895E0,-9.876082093E-2,3.776853085E-1,9.790489197E0,9.798269164E0
2.033847312E0,-7.960720360E-2,3.920505345E-1,9.790489197E0,9.798659074E0
2.036367780E0,-9.397241473E-2,3.872621357E-1,9.795277596E0,9.803380333E0
2.038888249E0,-9.876082093E-2,3.824737072E-1,9.800065994E0,9.808023926E0
2.041408718E0,-7.481880486E-2,3.681085110E-1,9.800065994E0,9.807262371E0
2.043929187E0,-7.481880486E-2,3.585317135E-1,9.804854393E0,9.811692643E0
2.046449655E0,-7.960720360E-2,3.681085110E-1,9.819219589E0,9.826439565E0
2.048970176E0,-7.481880486E-2,3.776853085E-1,9.809642792E0,9.817195921E0
2.051490749E0,-7.960720360E-2,3.633201122E-1,9.800065994E0,9.807121510E0
2.054011322E0,-8.918401599E-2,3.920505345E-1,9.800065994E0,9.808310298E0
2.056531947E0,-7.481880486E-2,3.681085110E-1,9.800065994E0,9.807262371E0
2.059052624E0,-8.918401599E-2,3.681085110E-1,9.795277596E0,9.802597658E0
2.061573301E0,-8.439560980E-2,3.776853085E-1,9.809642792E0,9.817273578E0
2.064093978E0,-8.439560980E-2,3.824737072E-1,9.790489197E0,9.798320645E0
2.066614655E0,-8.439560980E-2,3.633201122E-1,9.809642792E0,9.816731423E0
2.069135333E0,-8.439560980E-2,3.776853085E-1,9.804854393E0,9.812488903E0
2.071656010E0,-7.960720360E-2,3.776853085E-1,9.766547203E0,9.774171462E0
2.074176687E0,-8.439560980E-2,3.681085110E-1,9.790489197E0,9.797770420E0
2.076697364E0,-8.918401599E-2,3.776853085E-1,9.804854393E0,9.812531256E0
2.079218041E0,-7.960720360E-2,3.728969097E-1,9.795277596E0,9.802696190E0
2.081738718E0,-6.045359373E-2,3.824737072E-1,9.790489197E0,9.798143676E0
2.084259395E0,-5.087678507E-2,3.728969097E-1,9.766547203E0,9.773795825E0
2.086780072E0,-6.045359373E-2,3.633201122E-1,9.785700798E0,9.792629690E0
2.089300749E0,-7.003039867E-2,3.681085110E-1,9.790489197E0,9.797657212E0
2.091821478E0,-7.481880486E-2,3.633201122E-1,9.790489197E0,9.797513872E0
2.094342260E0,-7.003039867E-2,3.728969097E-1,9.780912399E0,9.788268679E0
2.096863093E0,-6.045359373E-2,3.776853085E-1,9.780912399E0,9.788388437E0
2.099383978E0,-6.524199992E-2,3.681085110E-1,9.776124001E0,9.783269437E0
2.101904916E0,-6.045359373E-2,3.776853085E-1,9.771335602E0,9.778818961E0
2.104425853E0,-5.087678507E-2,3.728969097E-1,9.780912399E0,9.788150383E0
2.106946791E0,-5.087678507E-2,3.728969097E-1,9.809642792E0,9.816859592E0
2.109467728E0,-6.524199992E-2,3.728969097E-1,9.804854393E0,9.812159716E0
2.111988666E0,-7.003039867E-2,3.776853085E-1,9.804854393E0,9.812375865E0
2.114509603E0,-6.045359373E-2,3.824737072E-1,9.800065994E0,9.807712999E0
2.117030541E0,-6.045359373E-2,3.728969097E-1,9.795277596E0,9.802559355E0
2.119551478E0,-5.566519126E-2,3.633201122E-1,9.780912399E0,9.787816277E0
2.122072416E0,-6.045359373E-2,3.776853085E-1,9.790489197E0,9.797957927E0
2.124593353E0,-8.439560980E-2,3.776853085E-1,9.780912399E0,9.788565583E0
2.127114291E0,-7.481880486E-2,3.872621357E-1,9.785700798E0,9.793646406E0
2.129635228E0,-7.003039867E-2,3.824737072E-1,9.785700798E0,9.793422819E0
2.132156166E0,-7.481880486E-2,3.824737072E-1,9.785700798E0,9.793458230E0
2.134677103E0,-7.481880486E-2,3.824737072E-1,9.795277596E0,9.803027449E0
2.137198041E0,-6.524199992E-2,3.728969097E-1,9.804854393E0,9.812159716E0
2.139718978E0,-7.481880486E-2,3.776853085E-1,9.814431190E0,9.821980637E0
2.142239916E0,-7.481880486E-2,3.824737072E-1,9.804854393E0,9.812596683E0
2.144760853E0,-8.439560980E-2,3.872621357E-1,9.800065994E0,9.808077695E0
2.147281791E0,-7.960720360E-2,3.872621357E-1,9.804854393E0,9.812822170E0
2.149802728E0,-8.918401599E-2,3.920505345E-1,9.804854393E0,9.813094674E0
2.152323510E0,-9.397241473E-2,3.728969097E-1,9.804854393E0,9.812392806E0
2.154844239E0,-7.960720360E-2,3.824737072E-1,9.785700798E0,9.793495982E0
2.157364968E0,-8.439560980E-2,3.920505345E-1,9.790489197E0,9.798699146E0
2.159885645E0,-8.918401599E-2,3.872621357E-1,9.804854393E0,9.812904535E0
2.162406322E0,-7.960720360E-2,3.920505345E-1,9.819219589E0,9.827365581E0
2.164926999E0,-8.918401599E-2,3.920505345E-1,9.804854393E0,9.813094674E0
2.167447676E0,-8.918401599E-2,3.872621357E-1,9.785700798E0,9.793766684E0
2.169968353E0,-7.960720360E-2,3.824737072E-1,9.790489197E0,9.798280571E0
2.172489030E0,-7.003039867E-2,3.920505345E-1,9.804854393E0,9.812939292E0
2.175009708E0,-7.960720360E-2,4.064157307E-1,9.814431190E0,9.823165001E0
2.177530437E0,-8.439560980E-2,4.064157307E-1,9.800065994E0,9.808852627E0
2.180051218E0,-7.481880486E-2,4.064157307E-1,9.795277596E0,9.803990757E0
2.182572051E0,-7.481880486E-2,4.016273320E-1,9.800065994E0,9.808577667E0
2.185092937E0,-7.960720360E-2,3.968389332E-1,9.790489197E0,9.798851829E0
2.187613874E0,-8.918401599E-2,4.016273320E-1,9.819219589E0,9.827834535E0
2.190134864E0,-7.960720360E-2,3.968389332E-1,9.800065994E0,9.808420461E0
2.192655905E0,-7.481880486E-2,3.920505345E-1,9.790489197E0,9.798621341E0
2.195176947E0,-7.481880486E-2,3.776853085E-1,9.790489197E0,9.798057091E0
2.197697989E0,-7.481880486E-2,3.968389332E-1,9.776124001E0,9.784461123E0
2.200219030E0,-7.481880486E-2,4.064157307E-1,9.785700798E0,9.794422480E0
2.202740072E0,-7.003039867E-2,4.016273320E-1,9.785700798E0,9.794189547E0
2.205261114E0,-7.960720360E-2,3.920505345E-1,9.800065994E0,9.808227894E0
2.207782155E0,-5.087678507E-2,4.064157307E-1,9.785700798E0,9.794268850E0
2.210303197E0,-7.481880486E-2,4.016273320E-1,9.780912399E0,9.789440726E0
2.212824239E0,-7.960720360E-2,3.968389332E-1,9.785700798E0,9.794067518E0
2.215345280E0,-7.003039867E-2,3.872621357E-1,9.800065994E0,9.807964606E0
2.217866322E0,-5.566519126E-2,3.824737072E-1,9.795277596E0,9.802899975E0
2.220387364E0,-7.003039867E-2,3.968389332E-1,9.785700798E0,9.793994359E0
2.222908405E0,-6.524199992E-2,4.159925580E-1,9.771335602E0,9.780404172E0
2.225429447E0,-7.003039867E-2,3.968389332E-1,9.785700798E0,9.793994359E0
2.227950541E0,-6.524199992E-2,3.920505345E-1,9.800065994E0,9.808121820E0
2.230471635E0,-6.045359373E-2,3.968389332E-1,9.804854393E0,9.813068095E0
2.232992728E0,-7.481880486E-2,3.968389332E-1,9.780912399E0,9.789245444E0
2.235513822E0,-5.566519126E-2,4.064157307E-1,9.776124001E0,9.784726508E0
2.238034916E0,-7.003039867E-2,3.824737072E-1,9.785700798E0,9.793422819E0
2.240556062E0,-7.481880486E-2,3.776853085E-1,9.780912399E0,9.788487698E0
2.243077260E0,-6.045359373E-2,3.824737072E-1,9.800065994E0,9.807712999E0
2.245598458E0,-4.608838260E-2,3.824737072E-1,9.795277596E0,9.802850272E0
2.248119655E0,-6.524199992E-2,3.968389332E-1,9.790489197E0,9.798745653E0
2.250640853E0,-5.087678507E-2,4.064157307E-1,9.795277596E0,9.803837278E0
2.253161947E0,-7.003039867E-2,3.920505345E-1,9.780912399E0,9.789017072E0
2.255682833E0,-7.481880486E-2,3.824737072E-1,9.785700798E0,9.793458230E0
2.258203718E0,-6.524199992E-2,4.016273320E-1,9.795277596E0,9.803725017E0
2.260724603E0,-7.960720360E-2,3.920505345E-1,9.804854393E0,9.813012310E0
2.263245489E0,-7.003039867E-2,3.920505345E-1,9.800065994E0,9.808154840E0
2.265766374E0,-5.566519126E-2,3.824737072E-1,9.790489197E0,9.798115302E0
2.268287260E0,-6.045359373E-2,3.824737072E-1,9.795277596E0,9.802928335E0
2.270808145E0,-6.045359373E-2,3.920505345E-1,9.804854393E0,9.812875620E0
2.273329030E0,-7.960720360E-2,3.920505345E-1,9.790489197E0,9.798659074E0
2.275849916E0,-8.439560980E-2,3.920505345E-1,9.795277596E0,9.803483535E0
2.278370801E0,-8.918401599E-2,3.824737072E-1,9.780912399E0,9.788793965E0
2.280891687E0,-8.439560980E-2,3.728969097E-1,9.814431190E0,9.821875295E0
2.283412572E0,-8.439560980E-2,3.872621357E-1,9.804854393E0,9.812862184E0
2.285933458E0,-8.439560980E-2,3.968389332E-1,9.795277596E0,9.803676195E0
2.288454083E0,-7.481880486E-2,3.728969097E-1,9.785700798E0,9.793088893E0
2.290974708E0,-8.439560980E-2,3.776853085E-1,9.795277596E0,9.802919564E0
2.293495333E0,-7.481880486E-2,3.872621357E-1,9.814431190E0,9.822353557E0
2.296015958E0,-7.960720360E-2,3.872621357E-1,9.804854393E0,9.812822170E0
2.298536583E0,-7.960720360E-2,3.633201122E-1,9.790489197E0,9.797551609E0
2.301057208E0,-7.481880486E-2,3.681085110E-1,9.785700798E0,9.792907732E0
2.303577885E0,-8.439560980E-2,3.824737072E-1,9.776124001E0,9.783966947E0
2.306098614E0,-9.397241473E-2,3.824737072E-1,9.790489197E0,9.798407813E0
2.308619395E0,-8.439560980E-2,3.728969097E-1,9.804854393E0,9.812305763E0
2.311140228E0,-7.481880486E-2,3.824737072E-1,9.795277596E0,9.803027449E0
2.313661114E0,-7.960720360E-2,3.824737072E-1,9.795277596E0,9.803065164E0
2.316182051E0,-7.960720360E-2,3.872621357E-1,9.795277596E0,9.803253156E0
2.318703041E0,-6.045359373E-2,3.920505345E-1,9.800065994E0,9.808091137E0
2.321224083E0,-5.087678507E-2,3.776853085E-1,9.804854393E0,9.812257860E0
2.323745176E0,-6.524199992E-2,3.872621357E-1,9.809642792E0,9.817500710E0
2.326266322E0,-7.481880486E-2,3.824737072E-1,9.804854393E0,9.812596683E0
2.328787520E0,-7.003039867E-2,3.633201122E-1,9.776124001E0,9.783123542E0
2.331308770E0,-6.524199992E-2,3.776853085E-1,9.766547203E0,9.774065018E0
2.333830072E0,-7.960720360E-2,3.681085110E-1,9.776124001E0,9.783375780E0
2.336351374E0,-8.918401599E-2,3.728969097E-1,9.809642792E0,9.817132860E0
2.338872676E0,-7.003039867E-2,3.776853085E-1,9.790489197E0,9.798021696E0
2.341393978E0,-7.960720360E-2,3.681085110E-1,9.790489197E0,9.797730344E0
2.343915280E0,-6.045359373E-2,3.776853085E-1,9.780912399E0,9.788388437E0
2.346436530E0,-7.481880486E-2,3.776853085E-1,9.785700798E0,9.793272393E0
2.348957572E0,-8.439560980E-2,3.681085110E-1,9.780912399E0,9.788200747E0
2.351478405E0,-7.960720360E-2,3.824737072E-1,9.795277596E0,9.803065164E0
2.353999239E0,-9.397241473E-2,3.824737072E-1,9.800065994E0,9.807976878E0
2.356520072E0,-7.960720360E-2,3.633201122E-1,9.790489197E0,9.797551609E0
2.359040905E0,-7.481880486E-2,3.728969097E-1,9.771335602E0,9.778734550E0
2.361561739E0,-7.960720360E-2,3.920505345E-1,9.790489197E0,9.798659074E0
2.364082572E0,-7.481880486E-2,3.872621357E-1,9.809642792E0,9.817569023E0
2.366603458E0,-5.087678507E-2,3.920505345E-1,9.785700798E0,9.793683279E0
2.369124395E0,-6.524199992E-2,3.824737072E-1,9.780912399E0,9.788605111E0
2.371645385E0,-7.960720360E-2,3.824737072E-1,9.795277596E0,9.803065164E0
2.374166426E0,-6.524199992E-2,3.968389332E-1,9.785700798E0,9.793961291E0
2.376687520E0,-7.481880486E-2,3.920505345E-1,9.785700798E0,9.793836918E0
2.379208614E0,-7.960720360E-2,3.824737072E-1,9.800065994E0,9.807849761E0
2.381729708E0,-7.481880486E-2,3.728969097E-1,9.795277596E0,9.802658473E0
2.384250801E0,-7.481880486E-2,3.681085110E-1,9.795277596E0,9.802477488E0
2.386771895E0,-7.003039867E-2,3.681085110E-1,9.790489197E0,9.797657212E0
2.389292989E0,-8.439560980E-2,3.681085110E-1,9.795277596E0,9.802555262E0
2.391814083E0,-7.481880486E-2,3.728969097E-1,9.790489197E0,9.797873681E0
2.394335124E0,-7.003039867E-2,3.920505345E-1,9.800065994E0,9.808154840E0
2.396856166E0,-9.876082093E-2,3.824737072E-1,9.790489197E0,9.798454906E0
2.399377208E0,-8.918401599E-2,3.776853085E-1,9.795277596E0,9.802961958E0
2.401898093E0,-8.439560980E-2,3.776853085E-1,9.785700798E0,9.793350240E0
2.404418978E0,-8.439560980E-2,3.824737072E-1,9.795277596E0,9.803105219E0
2.406939864E0,-7.481880486E-2,3.633201122E-1,9.790489197E0,9.797513872E0
2.409460749E0,-7.003039867E-2,3.728969097E-1,9.771335602E0,9.778699086E0
2.411981635E0,-7.481880486E-2,3.633201122E-1,9.766547203E0,9.773589086E0
2.414502520E0,-8.439560980E-2,3.681085110E-1,9.795277596E0,9.802555262E0
2.417023405E0,-9.397241473E-2,3.776853085E-1,9.804854393E0,9.812575945E0
2.419544291E0,-9.397241473E-2,3.681085110E-1,9.790489197E0,9.797857592E0
2.422065176E0,-8.439560980E-2,3.728969097E-1,9.795277596E0,9.802736245E0
2.424586062E0,-8.439560980E-2,3.681085110E-1,9.795277596E0,9.802555262E0
2.427106947E0,-8.918401599E-2,3.824737072E-1,9.800065994E0,9.807932168E0
2.429627833E0,-8.918401599E-2,3.728969097E-1,9.790489197E0,9.797993907E0
2.432148718E0,-8.918401599E-2,3.728969097E-1,9.780912399E0,9.788424452E0
2.434669603E0,-7.003039867E-2,3.633201122E-1,9.790489197E0,9.797478475E0
2.437190489E0,-7.960720360E-2,3.633201122E-1,9.790489197E0,9.797551609E0
2.439711374E0,-7.481880486E-2,3.681085110E-1,9.790489197E0,9.797692608E0
2.442232260E0,-7.003039867E-2,3.824737072E-1,9.800065994E0,9.807776705E0
2.444753145E0,-7.481880486E-2,3.968389332E-1,9.790489197E0,9.798814097E0
2.447274030E0,-7.960720360E-2,4.064157307E-1,9.790489197E0,9.799244347E0
2.449794968E0,-8.439560980E-2,3.968389332E-1,9.785700798E0,9.794107610E0
2.452315958E0,-7.960720360E-2,3.776853085E-1,9.804854393E0,9.812448887E0
2.454836999E0,-7.960720360E-2,3.728969097E-1,9.800065994E0,9.807480966E0
2.457358041E0,-7.003039867E-2,3.824737072E-1,9.804854393E0,9.812561341E0
2.459879083E0,-6.045359373E-2,3.872621357E-1,9.800065994E0,9.807900901E0
2.462400124E0,-6.524199992E-2,3.776853085E-1,9.780912399E0,9.788419182E0
2.464921166E0,-6.045359373E-2,3.681085110E-1,9.771335602E0,9.778453761E0
2.467441843E0,-5.087678507E-2,3.728969097E-1,9.795277596E0,9.802504972E0
2.469962520E0,-5.566519126E-2,3.824737072E-1,9.800065994E0,9.807684652E0
2.472483041E0,-7.003039867E-2,3.872621357E-1,9.785700798E0,9.793610995E0
2.475003301E0,-7.960720360E-2,3.968389332E-1,9.804854393E0,9.813204783E0
2.477523562E0,-6.524199992E-2,3.920505345E-1,9.795277596E0,9.803337356E0
2.480043822E0,-7.003039867E-2,3.824737072E-1,9.809642792E0,9.817345980E0
2.482564135E0,-6.045359373E-2,3.824737072E-1,9.790489197E0,9.798143676E0
2.485084499E0,-7.481880486E-2,3.872621357E-1,9.795277596E0,9.803215441E0
2.487604968E0,-6.045359373E-2,3.872621357E-1,9.776124001E0,9.783978080E0
2.490125541E0,-7.960720360E-2,3.824737072E-1,9.776124001E0,9.783926815E0
2.492646218E0,-8.439560980E-2,3.920505345E-1,9.804854393E0,9.813052324E0
2.495166999E0,-7.960720360E-2,3.872621357E-1,9.790489197E0,9.798468655E0
2.497687885E0,-7.003039867E-2,3.920505345E-1,9.800065994E0,9.808154840E0
2.500208874E0,-6.524199992E-2,3.872621357E-1,9.804854393E0,9.812716145E0
2.502729968E0,-7.481880486E-2,4.016273320E-1,9.785700798E0,9.794224955E0
2.505251114E0,-6.524199992E-2,3.872621357E-1,9.785700798E0,9.793577926E0
2.507772312E0,-5.566519126E-2,3.776853085E-1,9.800065994E0,9.807499085E0
2.510293510E0,-6.524199992E-2,3.824737072E-1,9.776124001E0,9.783820477E0
2.512814708E0,-7.003039867E-2,3.824737072E-1,9.780912399E0,9.788638197E0
2.515335905E0,-7.481880486E-2,3.920505345E-1,9.800065994E0,9.808190198E0
2.517856687E0,-6.524199992E-2,4.016273320E-1,9.780912399E0,9.789372217E0
2.520377468E0,-6.524199992E-2,3.872621357E-1,9.800065994E0,9.807931585E0
2.522898249E0,-6.524199992E-2,3.872621357E-1,9.785700798E0,9.793577926E0
2.525419030E0,-6.524199992E-2,4.016273320E-1,9.790489197E0,9.798940746E0
2.527939812E0,-7.481880486E-2,3.872621357E-1,9.785700798E0,9.793646406E0
2.530460593E0,-7.960720360E-2,3.776853085E-1,9.785700798E0,9.793310146E0
2.532981374E0,-8.439560980E-2,3.776853085E-1,9.800065994E0,9.807704232E0
2.535502155E0,-8.439560980E-2,3.824737072E-1,9.800065994E0,9.807889796E0
2.538022937E0,-7.003039867E-2,3.872621357E-1,9.785700798E0,9.793610995E0
2.540543718E0,-6.524199992E-2,3.872621357E-1,9.780912399E0,9.788793380E0
2.543064499E0,-8.439560980E-2,3.872621357E-1,9.800065994E0,9.808077695E0
2.545585280E0,-6.524199992E-2,3.872621357E-1,9.795277596E0,9.803147028E0
2.548106062E0,-7.481880486E-2,4.064157307E-1,9.785700798E0,9.794422480E0
2.550626843E0,-7.960720360E-2,4.064157307E-1,9.785700798E0,9.794460228E0
2.553147624E0,-7.481880486E-2,3.968389332E-1,9.785700798E0,9.794029768E0
2.555668405E0,-8.439560980E-2,3.920505345E-1,9.790489197E0,9.798699146E0
2.558189239E0,-7.960720360E-2,4.159925580E-1,9.795277596E0,9.804430136E0
2.560710124E0,-6.045359373E-2,4.016273320E-1,9.804854393E0,9.813262904E0
2.563231062E0,-7.003039867E-2,4.016273320E-1,9.776124001E0,9.784621058E0
2.565752051E0,-6.524199992E-2,3.968389332E-1,9.785700798E0,9.793961291E0
2.568273145E0,-6.045359373E-2,3.968389332E-1,9.800065994E0,9.808283707E0
2.570794291E0,-6.524199992E-2,3.872621357E-1,9.780912399E0,9.788793380E0
2.573315489E0,-6.524199992E-2,3.824737072E-1,9.785700798E0,9.793389748E0
2.575836687E0,-6.524199992E-2,3.824737072E-1,9.780912399E0,9.788605111E0
2.578357885E0,-7.003039867E-2,3.728969097E-1,9.790489197E0,9.797838286E0
2.580879083E0,-5.566519126E-2,3.872621357E-1,9.785700798E0,9.793518810E0
2.583400280E0,-6.524199992E-2,3.824737072E-1,9.800065994E0,9.807743683E0
2.585921478E0,-5.566519126E-2,3.968389332E-1,9.771335602E0,9.779549028E0
2.588442676E0,-5.566519126E-2,3.968389332E-1,9.785700798E0,9.793902177E0
2.590963874E0,-7.481880486E-2,3.728969097E-1,9.790489197E0,9.797873681E0
2.593485020E0,-7.003039867E-2,3.728969097E-1,9.828796387E0,9.836116854E0
2.596005853E0,-7.481880486E-2,3.728969097E-1,9.814431190E0,9.821797674E0
2.598526687E0,-7.003039867E-2,3.728969097E-1,9.785700798E0,9.793053480E0
2.601047520E0,-7.960720360E-2,3.824737072E-1,9.795277596E0,9.803065164E0
2.603568353E0,-7.003039867E-2,3.920505345E-1,9.785700798E0,9.793801508E0
2.606089135E0,-7.960720360E-2,3.872621357E-1,9.780912399E0,9.788899664E0
2.608609916E0,-6.524199992E-2,3.824737072E-1,9.790489197E0,9.798174390E0
2.611130697E0,-7.003039867E-2,3.776853085E-1,9.800065994E0,9.807591139E0
2.613651478E0,-7.481880486E-2,3.681085110E-1,9.780912399E0,9.788122858E0
2.616172312E0,-8.439560980E-2,3.728969097E-1,9.800065994E0,9.807521003E0
2.618693145E0,-7.960720360E-2,3.824737072E-1,9.800065994E0,9.807849761E0
2.621213978E0,-7.960720360E-2,3.920505345E-1,9.800065994E0,9.808227894E0
2.623734812E0,-6.524199992E-2,3.872621357E-1,9.785700798E0,9.793577926E0
2.626255645E0,-7.960720360E-2,3.872621357E-1,9.776124001E0,9.784115174E0
2.628776478E0,-8.439560980E-2,3.776853085E-1,9.790489197E0,9.798134900E0
2.631297312E0,-7.481880486E-2,3.681085110E-1,9.790489197E0,9.797692608E0
2.633818041E0,-6.524199992E-2,3.728969097E-1,9.790489197E0,9.797805231E0
2.636338770E0,-7.960720360E-2,3.824737072E-1,9.785700798E0,9.793495982E0
2.638859499E0,-9.397241473E-2,3.872621357E-1,9.776124001E0,9.784242600E0
2.641380228E0,-9.397241473E-2,4.016273320E-1,9.790489197E0,9.799174151E0
2.643900958E0,-6.524199992E-2,3.824737072E-1,9.790489197E0,9.798174390E0
2.646421687E0,-7.003039867E-2,3.776853085E-1,9.795277596E0,9.802806416E0
2.648942468E0,-6.045359373E-2,3.920505345E-1,9.790489197E0,9.798522183E0
2.651463249E0,-6.524199992E-2,3.681085110E-1,9.771335602E0,9.778484537E0
2.653984030E0,-7.960720360E-2,3.872621357E-1,9.785700798E0,9.793684158E0
2.656504812E0,-7.481880486E-2,3.920505345E-1,9.804854393E0,9.812974633E0
2.659025593E0,-7.960720360E-2,3.776853085E-1,9.800065994E0,9.807664196E0
2.661546374E0,-7.481880486E-2,3.681085110E-1,9.814431190E0,9.821617042E0
2.664067155E0,-7.481880486E-2,3.681085110E-1,9.795277596E0,9.802477488E0
2.666587937E0,-7.003039867E-2,3.776853085E-1,9.785700798E0,9.793236981E0
2.669108458E0,-7.003039867E-2,4.016273320E-1,9.780912399E0,9.789405300E0
2.671628978E0,-7.960720360E-2,3.681085110E-1,9.814431190E0,9.821654686E0
2.674149499E0,-6.524199992E-2,3.824737072E-1,9.828796387E0,9.836451650E0
2.676670020E0,-8.439560980E-2,3.824737072E-1,9.814431190E0,9.822243550E0
2.679190541E0,-7.481880486E-2,3.728969097E-1,9.795277596E0,9.802658473E0
2.681711114E0,-7.960720360E-2,3.824737072E-1,9.804854393E0,9.812634361E0
2.684231739E0,-7.960720360E-2,3.824737072E-1,9.795277596E0,9.803065164E0
2.686752416E0,-7.960720360E-2,3.728969097E-1,9.790489197E0,9.797911416E0
2.689273145E0,-7.003039867E-2,3.728969097E-1,9.804854393E0,9.812192723E0
2.691793926E0,-8.918401599E-2,3.824737072E-1,9.800065994E0,9.807932168E0
2.694314812E0,-7.960720360E-2,3.681085110E-1,9.790489197E0,9.797730344E0
2.696835749E0,-7.003039867E-2,3.824737072E-1,9.776124001E0,9.783853580E0
2.699356791E0,-7.960720360E-2,3.968389332E-1,9.795277596E0,9.803636143E0
2.701877937E0,-6.045359373E-2,3.872621357E-1,9.804854393E0,9.812685477E0
2.704399187E0,-6.524199992E-2,3.824737072E-1,9.804854393E0,9.812528335E0
2.706920489E0,-7.003039867E-2,3.824737072E-1,9.776124001E0,9.783853580E0
2.709441895E0,-6.524199992E-2,3.872621357E-1,9.795277596E0,9.803147028E0
2.711963405E0,-8.439560980E-2,3.824737072E-1,9.804854393E0,9.812674377E0
2.714485020E0,-8.439560980E-2,3.633201122E-1,9.790489197E0,9.797591685E0
2.717006687E0,-7.003039867E-2,3.776853085E-1,9.776124001E0,9.783667560E0
2.719528405E0,-5.087678507E-2,3.776853085E-1,9.780912399E0,9.788333975E0
2.722050124E0,-7.481880486E-2,3.728969097E-1,9.804854393E0,9.812228066E0
2.724571687E0,-9.397241473E-2,3.728969097E-1,9.795277596E0,9.802823374E0
2.727092364E0,-8.439560980E-2,3.728969097E-1,9.800065994E0,9.807521003E0
2.729613041E0,-6.524199992E-2,3.824737072E-1,9.809642792E0,9.817312991E0
2.732133718E0,-6.524199992E-2,3.920505345E-1,9.824007988E0,9.832044197E0
2.734654395E0,-6.524199992E-2,3.728969097E-1,9.795277596E0,9.802590056E0
2.737175072E0,-7.960720360E-2,3.920505345E-1,9.809642792E0,9.817796730E0
2.739695749E0,-7.003039867E-2,4.064157307E-1,9.795277596E0,9.803955384E0
2.742216426E0,-7.481880486E-2,3.920505345E-1,9.785700798E0,9.793836918E0
2.744737103E0,-7.481880486E-2,3.872621357E-1,9.800065994E0,9.807999965E0
2.747257780E0,-7.481880486E-2,3.776853085E-1,9.790489197E0,9.798057091E0
2.749778458E0,-7.960720360E-2,3.824737072E-1,9.790489197E0,9.798280571E0
2.752299187E0,-6.524199992E-2,3.728969097E-1,9.785700798E0,9.793020409E0
2.754819916E0,-8.439560980E-2,3.872621357E-1,9.804854393E0,9.812862184E0
2.757340697E0,-8.439560980E-2,3.920505345E-1,9.814431190E0,9.822621128E0
2.759861530E0,-8.439560980E-2,3.872621357E-1,9.804854393E0,9.812862184E0
2.762382416E0,-7.960720360E-2,3.824737072E-1,9.785700798E0,9.793495982E0
2.764903353E0,-7.960720360E-2,3.872621357E-1,9.790489197E0,9.798468655E0
2.767424343E0,-7.960720360E-2,3.776853085E-1,9.790489197E0,9.798094826E0
2.769945385E0,-8.918401599E-2,3.681085110E-1,9.804854393E0,9.812167311E0
2.772466478E0,-7.481880486E-2,3.728969097E-1,9.800065994E0,9.807443268E0
2.774987624E0,-7.481880486E-2,3.681085110E-1,9.780912399E0,9.788122858E0
2.777508770E0,-7.481880486E-2,3.824737072E-1,9.766547203E0,9.774319836E0
2.780029916E0,-7.960720360E-2,3.872621357E-1,9.776124001E0,9.784115174E0
2.782551062E0,-7.481880486E-2,3.968389332E-1,9.795277596E0,9.803598429E0
2.785072208E0,-7.003039867E-2,3.872621357E-1,9.795277596E0,9.803180065E0
2.787593249E0,-7.003039867E-2,3.968389332E-1,9.785700798E0,9.793994359E0
2.790114239E0,-8.918401599E-2,3.872621357E-1,9.785700798E0,9.793766684E0
2.792635228E0,-7.960720360E-2,3.872621357E-1,9.795277596E0,9.803253156E0
2.795156218E0,-7.481880486E-2,3.824737072E-1,9.795277596E0,9.803027449E0
2.797677208E0,-7.960720360E-2,3.968389332E-1,9.785700798E0,9.794067518E0
2.800198197E0,-8.918401599E-2,3.920505345E-1,9.771335602E0,9.779604126E0
2.802719187E0,-8.439560980E-2,3.872621357E-1,9.785700798E0,9.793724250E0
2.805240176E0,-9.876082093E-2,3.776853085E-1,9.790489197E0,9.798269164E0
2.807761218E0,-7.481880486E-2,3.872621357E-1,9.814431190E0,9.822353557E0
2.810282312E0,-6.524199992E-2,3.872621357E-1,9.804854393E0,9.812716145E0
2.812803458E0,-6.045359373E-2,3.920505345E-1,9.790489197E0,9.798522183E0
2.815324655E0,-8.439560980E-2,4.016273320E-1,9.804854393E0,9.813439601E0
2.817845853E0,-7.960720360E-2,3.920505345E-1,9.790489197E0,9.798659074E0
2.820367051E0,-7.960720360E-2,4.159925580E-1,9.800065994E0,9.809214067E0
2.822888249E0,-7.003039867E-2,4.016273320E-1,9.804854393E0,9.813326574E0
2.825409343E0,-6.524199992E-2,3.872621357E-1,9.800065994E0,9.807931585E0
2.827930437E0,-7.481880486E-2,3.920505345E-1,9.804854393E0,9.812974633E0
2.830451426E0,-7.003039867E-2,3.920505345E-1,9.790489197E0,9.798585949E0
2.832972416E0,-7.003039867E-2,4.016273320E-1,9.790489197E0,9.798973797E0
2.835493405E0,-6.524199992E-2,3.872621357E-1,9.804854393E0,9.812716145E0
2.838014395E0,-7.003039867E-2,3.968389332E-1,9.804854393E0,9.813131766E0
2.840535385E0,-6.524199992E-2,3.968389332E-1,9.780912399E0,9.789176933E0
2.843056374E0,-7.481880486E-2,4.064157307E-1,9.766547203E0,9.775285974E0
2.845577416E0,-7.960720360E-2,4.016273320E-1,9.780912399E0,9.789478494E0
2.848098458E0,-7.003039867E-2,4.064157307E-1,9.804854393E0,9.813523713E0
2.850619499E0,-7.481880486E-2,4.016273320E-1,9.804854393E0,9.813361913E0
2.853140437E0,-7.960720360E-2,4.064157307E-1,9.795277596E0,9.804028469E0
2.855660958E0,-8.918401599E-2,3.920505345E-1,9.776124001E0,9.784388478E0
2.858181478E0,-7.960720360E-2,3.872621357E-1,9.785700798E0,9.793684158E0
2.860701999E0,-7.481880486E-2,3.872621357E-1,9.795277596E0,9.803215441E0
2.863222520E0,-7.481880486E-2,4.016273320E-1,9.828796387E0,9.837283201E0
2.865743041E0,-6.524199992E-2,3.968389332E-1,9.814431190E0,9.822667522E0
2.868263614E0,-7.003039867E-2,3.920505345E-1,9.795277596E0,9.803370392E0
2.870784239E0,-7.481880486E-2,4.064157307E-1,9.776124001E0,9.784854218E0
2.873304916E0,-7.003039867E-2,3.920505345E-1,9.771335602E0,9.779448212E0
2.875825645E0,-7.003039867E-2,3.776853085E-1,9.780912399E0,9.788452268E0
2.878346426E0,-7.003039867E-2,3.824737072E-1,9.814431190E0,9.822130624E0
2.880867260E0,-8.439560980E-2,4.016273320E-1,9.819219589E0,9.827792248E0
2.883388093E0,-7.481880486E-2,4.016273320E-1,9.804854393E0,9.813361913E0
2.885908926E0,-8.439560980E-2,3.872621357E-1,9.795277596E0,9.803293210E0
2.888429760E0,-6.524199992E-2,4.016273320E-1,9.809642792E0,9.818077853E0
2.890950593E0,-6.524199992E-2,4.016273320E-1,9.800065994E0,9.808509292E0
2.893471426E0,-6.524199992E-2,3.872621357E-1,9.785700798E0,9.793577926E0
2.895992103E0,-7.960720360E-2,3.968389332E-1,9.785700798E0,9.794067518E0
2.898512572E0,-7.960720360E-2,4.016273320E-1,9.790489197E0,9.799046920E0
2.901033041E0,-8.439560980E-2,3.920505345E-1,9.804854393E0,9.813052324E0
2.903553510E0,-7.960720360E-2,3.920505345E-1,9.814431190E0,9.822581154E0
2.906073978E0,-7.960720360E-2,3.872621357E-1,9.790489197E0,9.798468655E0
2.908594447E0,-8.439560980E-2,3.776853085E-1,9.780912399E0,9.788565583E0
2.911114916E0,-7.960720360E-2,3.872621357E-1,9.795277596E0,9.803253156E0
2.913635385E0,-7.481880486E-2,3.920505345E-1,9.785700798E0,9.793836918E0
2.916155853E0,-7.003039867E-2,3.872621357E-1,9.795277596E0,9.803180065E0
2.918676322E0,-7.003039867E-2,3.872621357E-1,9.800065994E0,9.807964606E0
2.921196791E0,-7.481880486E-2,3.776853085E-1,9.814431190E0,9.821980637E0
2.923717260E0,-8.439560980E-2,3.872621357E-1,9.804854393E0,9.812862184E0
2.926237728E0,-7.960720360E-2,3.728969097E-1,9.790489197E0,9.797911416E0
2.928758197E0,-7.960720360E-2,3.776853085E-1,9.785700798E0,9.793310146E0
2.931278666E0,-7.960720360E-2,3.824737072E-1,9.795277596E0,9.803065164E0
2.933799135E0,-9.876082093E-2,3.872621357E-1,9.800065994E0,9.808211822E0
2.936319603E0,-7.003039867E-2,3.920505345E-1,9.790489197E0,9.798585949E0
2.938840072E0,-6.524199992E-2,3.824737072E-1,9.790489197E0,9.798174390E0
2.941360593E0,-7.003039867E-2,3.728969097E-1,9.785700798E0,9.793053480E0
2.943881166E0,-7.481880486E-2,3.872621357E-1,9.795277596E0,9.803215441E0
2.946401791E0,-7.960720360E-2,3.920505345E-1,9.795277596E0,9.803443482E0
2.948922416E0,-7.481880486E-2,3.824737072E-1,9.800065994E0,9.807812064E0
2.951443041E0,-7.481880486E-2,3.728969097E-1,9.785700798E0,9.793088893E0
2.953963666E0,-7.481880486E-2,3.728969097E-1,9.776124001E0,9.783519328E0
2.956484291E0,-6.045359373E-2,3.728969097E-1,9.785700798E0,9.792989679E0
2.959004916E0,-7.481880486E-2,3.728969097E-1,9.795277596E0,9.802658473E0
2.961525437E0,-7.960720360E-2,3.681085110E-1,9.785700798E0,9.792945486E0
2.964045958E0,-7.003039867E-2,3.824737072E-1,9.776124001E0,9.783853580E0
2.966566478E0,-6.524199992E-2,3.920505345E-1,9.780912399E0,9.788983987E0
2.969086999E0,-7.003039867E-2,3.872621357E-1,9.790489197E0,9.798395528E0
2.971607520E0,-6.524199992E-2,3.681085110E-1,9.790489197E0,9.797624156E0
2.974128041E0,-8.439560980E-2,3.633201122E-1,9.800065994E0,9.807161547E0
2.976648562E0,-6.524199992E-2,3.728969097E-1,9.804854393E0,9.812159716E0
2.979169083E0,-5.566519126E-2,3.728969097E-1,9.795277596E0,9.802530994E0
2.981689603E0,-6.524199992E-2,3.776853085E-1,9.780912399E0,9.788419182E0
2.984210124E0,-6.524199992E-2,3.728969097E-1,9.780912399E0,9.788235591E0
2.986730645E0,-6.524199992E-2,3.776853085E-1,9.795277596E0,9.802773377E0
2.989251166E0,-7.960720360E-2,3.776853085E-1,9.780912399E0,9.788525469E0
2.991771687E0,-7.960720360E-2,3.728969097E-1,9.776124001E0,9.783557118E0
2.994292208E0,-5.566519126E-2,3.728969097E-1,9.780912399E0,9.788176443E0
2.996812728E0,-7.003039867E-2,3.728969097E-1,9.780912399E0,9.788268679E0
2.999333249E0,-6.524199992E-2,3.728969097E-1,9.780912399E0,9.788235591E0
3.001853822E0,-7.003039867E-2,3.681085110E-1,9.785700798E0,9.792872318E0
3.004374447E0,-7.960720360E-2,3.728969097E-1,9.795277596E0,9.802696190E0
3.006895124E0,-7.960720360E-2,3.776853085E-1,9.809642792E0,9.817233582E0
3.009415905E0,-6.524199992E-2,3.824737072E-1,9.804854393E0,9.812528335E0
3.011936791E0,-8.439560980E-2,3.920505345E-1,9.804854393E0,9.813052324E0
3.014457728E0,-7.481880486E-2,3.824737072E-1,9.814431190E0,9.822165931E0
3.016978718E0,-8.918401599E-2,3.824737072E-1,9.800065994E0,9.807932168E0
3.019499708E0,-7.003039867E-2,3.681085110E-1,9.800065994E0,9.807227010E0
3.022020697E0,-6.524199992E-2,3.633201122E-1,9.785700798E0,9.792660422E0
3.024541530E0,-6.524199992E-2,3.681085110E-1,9.800065994E0,9.807193986E0
3.027062103E0,-7.960720360E-2,3.681085110E-1,9.795277596E0,9.802515206E0
3.029582676E0,-7.960720360E-2,3.728969097E-1,9.800065994E0,9.807480966E0
3.032103249E0,-7.481880486E-2,3.681085110E-1,9.800065994E0,9.807262371E0
3.034623822E0,-8.439560980E-2,3.728969097E-1,9.795277596E0,9.802736245E0
3.037144395E0,-8.439560980E-2,3.824737072E-1,9.771335602E0,9.779182389E0
3.039664968E0,-7.481880486E-2,3.776853085E-1,9.785700798E0,9.793272393E0
3.042185541E0,-7.481880486E-2,3.824737072E-1,9.795277596E0,9.803027449E0
3.044706114E0,-6.524199992E-2,3.824737072E-1,9.804854393E0,9.812528335E0
3.047226635E0,-6.524199992E-2,3.776853085E-1,9.795277596E0,9.802773377E0
3.049747155E0,-6.524199992E-2,3.681085110E-1,9.800065994E0,9.807193986E0
3.052267676E0,-7.003039867E-2,3.776853085E-1,9.785700798E0,9.793236981E0
3.054788197E0,-8.439560980E-2,3.872621357E-1,9.795277596E0,9.803293210E0
3.057308770E0,-8.439560980E-2,3.776853085E-1,9.795277596E0,9.802919564E0
3.059829395E0,-8.918401599E-2,3.776853085E-1,9.790489197E0,9.798177315E0
3.062350072E0,-8.439560980E-2,3.776853085E-1,9.771335602E0,9.778996281E0
3.064870801E0,-7.003039867E-2,3.872621357E-1,9.776124001E0,9.784041940E0
3.067391583E0,-7.960720360E-2,3.824737072E-1,9.795277596E0,9.803065164E0
3.069912416E0,-7.960720360E-2,3.728969097E-1,9.795277596E0,9.802696190E0
3.072433249E0,-7.003039867E-2,3.728969097E-1,9.785700798E0,9.793053480E0
3.074954083E0,-7.481880486E-2,3.728969097E-1,9.776124001E0,9.783519328E0
3.077474916E0,-7.481880486E-2,3.728969097E-1,9.785700798E0,9.793088893E0
3.079995437E0,-6.524199992E-2,3.681085110E-1,9.795277596E0,9.802409070E0
3.082515905E0,-6.045359373E-2,3.872621357E-1,9.795277596E0,9.803116330E0
3.085036374E0,-7.481880486E-2,3.872621357E-1,9.795277596E0,9.803215441E0
3.087556843E0,-6.045359373E-2,3.824737072E-1,9.795277596E0,9.802928335E0
3.090077312E0,-6.524199992E-2,3.824737072E-1,9.785700798E0,9.793389748E0
3.092597780E0,-7.003039867E-2,3.872621357E-1,9.785700798E0,9.793610995E0
3.095118249E0,-8.439560980E-2,3.872621357E-1,9.790489197E0,9.798508728E0
3.097638718E0,-9.397241473E-2,3.920505345E-1,9.785700798E0,9.794001968E0
3.100159187E0,-7.003039867E-2,3.920505345E-1,9.795277596E0,9.803370392E0
3.102679708E0,-7.003039867E-2,3.872621357E-1,9.790489197E0,9.798395528E0
3.105200280E0,-7.960720360E-2,3.776853085E-1,9.771335602E0,9.778956127E0
3.107720905E0,-8.439560980E-2,3.872621357E-1,9.790489197E0,9.798508728E0
3.110241583E0,-7.960720360E-2,3.920505345E-1,9.804854393E0,9.813012310E0
3.112762312E0,-7.003039867E-2,4.016273320E-1,9.809642792E0,9.818110840E0
3.115283093E0,-8.439560980E-2,3.872621357E-1,9.795277596E0,9.803293210E0
3.117803926E0,-8.918401599E-2,3.872621357E-1,9.804854393E0,9.812904535E0
3.120324812E0,-7.003039867E-2,4.064157307E-1,9.776124001E0,9.784818776E0
3.122845749E0,-7.003039867E-2,3.968389332E-1,9.790489197E0,9.798778705E0
3.125366739E0,-7.481880486E-2,3.728969097E-1,9.785700798E0,9.793088893E0
3.127887780E0,-7.003039867E-2,3.968389332E-1,9.804854393E0,9.813131766E0
3.130408874E0,-6.524199992E-2,3.968389332E-1,9.800065994E0,9.808314389E0
3.132930020E0,-7.481880486E-2,3.824737072E-1,9.795277596E0,9.803027449E0
3.135451166E0,-8.439560980E-2,3.968389332E-1,9.785700798E0,9.794107610E0
3.137972312E0,-7.960720360E-2,3.920505345E-1,9.795277596E0,9.803443482E0
3.140492937E0,-7.481880486E-2,3.920505345E-1,9.809642792E0,9.817759071E0
3.143013562E0,-8.439560980E-2,4.016273320E-1,9.790489197E0,9.799086990E0
3.145533978E0,-8.439560980E-2,4.016273320E-1,9.785700798E0,9.794302795E0
3.148054395E0,-7.960720360E-2,4.112041295E-1,9.795277596E0,9.804228135E0
3.150574812E0,-8.439560980E-2,4.112041295E-1,9.819219589E0,9.828188276E0
3.153095228E0,-7.960720360E-2,4.064157307E-1,9.809642792E0,9.818380862E0
3.155615645E0,-8.439560980E-2,3.920505345E-1,9.776124001E0,9.784346003E0
3.158136062E0,-7.481880486E-2,3.920505345E-1,9.795277596E0,9.803405768E0
3.160656478E0,-7.960720360E-2,3.920505345E-1,9.800065994E0,9.808227894E0
3.163176895E0,-8.439560980E-2,3.968389332E-1,9.790489197E0,9.798891900E0
3.165697312E0,-7.960720360E-2,3.968389332E-1,9.800065994E0,9.808420461E0
3.168217728E0,-7.481880486E-2,3.872621357E-1,9.790489197E0,9.798430922E0
3.170738145E0,-7.960720360E-2,3.872621357E-1,9.790489197E0,9.798468655E0
3.173258562E0,-7.481880486E-2,3.920505345E-1,9.790489197E0,9.798621341E0
3.175778978E0,-7.481880486E-2,3.968389332E-1,9.785700798E0,9.794029768E0
3.178299447E0,-7.960720360E-2,3.968389332E-1,9.790489197E0,9.798851829E0
3.180819968E0,-8.439560980E-2,3.920505345E-1,9.809642792E0,9.817836724E0
3.183340541E0,-7.003039867E-2,4.064157307E-1,9.800065994E0,9.808739547E0
3.185861166E0,-8.439560980E-2,4.064157307E-1,9.790489197E0,9.799284417E0
3.188381843E0,-7.481880486E-2,4.064157307E-1,9.800065994E0,9.808774903E0
3.190902572E0,-7.003039867E-2,3.968389332E-1,9.795277596E0,9.803563055E0
3.193423353E0,-7.481880486E-2,3.968389332E-1,9.790489197E0,9.798814097E0
3.195944135E0,-7.960720360E-2,3.872621357E-1,9.800065994E0,9.808037661E0
3.198464916E0,-8.918401599E-2,4.064157307E-1,9.800065994E0,9.808894995E0
3.200985697E0,-8.439560980E-2,3.968389332E-1,9.800065994E0,9.808460493E0
3.203506478E0,-7.481880486E-2,3.920505345E-1,9.804854393E0,9.812974633E0
3.206027260E0,-8.918401599E-2,3.920505345E-1,9.804854393E0,9.813094674E0
3.208548041E0,-8.439560980E-2,3.872621357E-1,9.809642792E0,9.817646677E0
3.211068822E0,-7.960720360E-2,3.968389332E-1,9.790489197E0,9.798851829E0
3.213589603E0,-7.003039867E-2,3.824737072E-1,9.790489197E0,9.798207443E0
3.216110385E0,-6.524199992E-2,3.920505345E-1,9.804854393E0,9.812906288E0
3.218631166E0,-7.481880486E-2,3.728969097E-1,9.790489197E0,9.797873681E0
3.221151947E0,-8.439560980E-2,3.872621357E-1,9.804854393E0,9.812862184E0
3.223672728E0,-7.003039867E-2,4.016273320E-1,9.776124001E0,9.784621058E0
3.226193510E0,-7.003039867E-2,3.872621357E-1,9.766547203E0,9.774472901E0
3.228714291E0,-7.481880486E-2,3.968389332E-1,9.804854393E0,9.813167107E0
3.231235020E0,-7.481880486E-2,3.824737072E-1,9.809642792E0,9.817381305E0
3.233755541E0,-9.397241473E-2,3.872621357E-1,9.804854393E0,9.812949223E0
3.236275853E0,-7.960720360E-2,3.920505345E-1,9.795277596E0,9.803443482E0
3.238796166E0,-7.481880486E-2,3.681085110E-1,9.804854393E0,9.812047258E0
3.241316322E0,-7.960720360E-2,3.824737072E-1,9.785700798E0,9.793495982E0
3.243836478E0,-5.566519126E-2,3.920505345E-1,9.795277596E0,9.803278299E0
3.246356635E0,-6.045359373E-2,3.776853085E-1,9.790489197E0,9.797957927E0
3.248876791E0,-7.003039867E-2,3.824737072E-1,9.795277596E0,9.802992072E0
3.251396999E0,-6.524199992E-2,3.728969097E-1,9.780912399E0,9.788235591E0
3.253917260E0,-7.960720360E-2,3.776853085E-1,9.795277596E0,9.802879509E0
3.256437572E0,-7.481880486E-2,3.776853085E-1,9.804854393E0,9.812411208E0
3.258957937E0,-7.003039867E-2,3.776853085E-1,9.800065994E0,9.807591139E0
3.261478353E0,-6.524199992E-2,3.920505345E-1,9.780912399E0,9.788983987E0
3.263998822E0,-7.960720360E-2,3.968389332E-1,9.780912399E0,9.789283212E0
3.266519343E0,-7.003039867E-2,3.968389332E-1,9.795277596E0,9.803563055E0
3.269039916E0,-6.524199992E-2,3.920505345E-1,9.809642792E0,9.817690759E0
3.271560593E0,-6.524199992E-2,3.776853085E-1,9.795277596E0,9.802773377E0
3.274081322E0,-6.524199992E-2,3.920505345E-1,9.809642792E0,9.817690759E0
3.276602103E0,-7.003039867E-2,3.824737072E-1,9.795277596E0,9.802992072E0
3.279122937E0,-7.003039867E-2,3.728969097E-1,9.776124001E0,9.783483880E0
3.281643822E0,-7.003039867E-2,3.920505345E-1,9.776124001E0,9.784232640E0
3.284164760E0,-8.918401599E-2,3.824737072E-1,9.780912399E0,9.788793965E0
3.286685749E0,-7.960720360E-2,3.776853085E-1,9.804854393E0,9.812448887E0
3.289206739E0,-7.003039867E-2,3.824737072E-1,9.804854393E0,9.812561341E0
3.291727728E0,-7.003039867E-2,3.728969097E-1,9.785700798E0,9.793053480E0
3.294248718E0,-7.960720360E-2,3.728969097E-1,9.785700798E0,9.793126647E0
3.296769708E0,-9.876082093E-2,3.776853085E-1,9.804854393E0,9.812622970E0
3.299290697E0,-9.397241473E-2,3.872621357E-1,9.819219589E0,9.827302586E0
3.301811426E0,-7.960720360E-2,3.920505345E-1,9.804854393E0,9.813012310E0
3.304332155E0,-7.003039867E-2,3.920505345E-1,9.785700798E0,9.793801508E0
3.306852520E0,-7.481880486E-2,3.824737072E-1,9.800065994E0,9.807812064E0
3.309372885E0,-9.876082093E-2,3.728969097E-1,9.814431190E0,9.822009234E0
3.311893249E0,-9.397241473E-2,3.681085110E-1,9.804854393E0,9.812212001E0
3.314413614E0,-7.003039867E-2,3.776853085E-1,9.795277596E0,9.802806416E0
3.316933978E0,-6.524199992E-2,3.872621357E-1,9.790489197E0,9.798362475E0
3.319454395E0,-7.481880486E-2,3.824737072E-1,9.790489197E0,9.798242837E0
3.321974864E0,-7.481880486E-2,3.872621357E-1,9.804854393E0,9.812784492E0
3.324495333E0,-7.481880486E-2,3.824737072E-1,9.800065994E0,9.807812064E0
3.327015853E0,-7.960720360E-2,3.824737072E-1,9.800065994E0,9.807849761E0
3.329536426E0,-7.481880486E-2,3.920505345E-1,9.785700798E0,9.793836918E0
3.332057051E0,-7.481880486E-2,3.824737072E-1,9.766547203E0,9.774319836E0
3.334577676E0,-6.524199992E-2,3.920505345E-1,9.771335602E0,9.779415094E0
3.337098301E0,-8.439560980E-2,4.016273320E-1,9.809642792E0,9.818223813E0
3.339618926E0,-7.481880486E-2,3.872621357E-1,9.795277596E0,9.803215441E0
3.342139551E0,-6.524199992E-2,3.776853085E-1,9.780912399E0,9.788419182E0
3.344660176E0,-7.481880486E-2,3.920505345E-1,9.780912399E0,9.789052499E0
3.347180801E0,-6.524199992E-2,4.016273320E-1,9.785700798E0,9.794156479E0
3.349701478E0,-5.566519126E-2,3.824737072E-1,9.790489197E0,9.798115302E0
3.352222208E0,-4.608838260E-2,3.776853085E-1,9.776124001E0,9.783525479E0
3.354742937E0,-7.003039867E-2,3.872621357E-1,9.785700798E0,9.793610995E0
3.357263666E0,-7.003039867E-2,3.872621357E-1,9.800065994E0,9.807964606E0
3.359784395E0,-7.003039867E-2,3.872621357E-1,9.800065994E0,9.807964606E0
3.362305176E0,-7.003039867E-2,3.824737072E-1,9.804854393E0,9.812561341E0
3.364826010E0,-7.481880486E-2,3.728969097E-1,9.790489197E0,9.797873681E0
3.367346895E0,-6.524199992E-2,3.728969097E-1,9.800065994E0,9.807374884E0
3.369867833E0,-7.960720360E-2,3.776853085E-1,9.790489197E0,9.798094826E0
3.372388822E0,-8.439560980E-2,3.776853085E-1,9.795277596E0,9.802919564E0
3.374909864E0,-8.918401599E-2,3.872621357E-1,9.790489197E0,9.798551141E0
3.377430905E0,-7.003039867E-2,3.776853085E-1,9.785700798E0,9.793236981E0
3.379951947E0,-6.524199992E-2,3.728969097E-1,9.785700798E0,9.793020409E0
3.382472989E0,-7.003039867E-2,3.681085110E-1,9.800065994E0,9.807227010E0
3.384994030E0,-7.003039867E-2,3.872621357E-1,9.776124001E0,9.784041940E0
3.387515072E0,-7.481880486E-2,3.920505345E-1,9.776124001E0,9.784268084E0
3.390036114E0,-7.481880486E-2,3.776853085E-1,9.776124001E0,9.783703007E0
3.392557155E0,-7.481880486E-2,3.489548862E-1,9.785700798E0,9.792206466E0
3.395077937E0,-8.439560980E-2,3.585317135E-1,9.790489197E0,9.797415288E0
3.397598353E0,-8.439560980E-2,3.681085110E-1,9.785700798E0,9.792985582E0
3.400118405E0,-7.481880486E-2,3.776853085E-1,9.795277596E0,9.802841793E0
3.402638405E0,-6.524199992E-2,3.681085110E-1,9.795277596E0,9.802409070E0
3.405158405E0,-7.003039867E-2,3.728969097E-1,9.785700798E0,9.793053480E0
3.407678405E0,-7.481880486E-2,3.872621357E-1,9.771335602E0,9.779292881E0
3.410198405E0,-8.918401599E-2,3.872621357E-1,9.771335602E0,9.779413336E0
3.412718458E0,-7.960720360E-2,3.681085110E-1,9.804854393E0,9.812084939E0
3.415238562E0,-6.524199992E-2,3.728969097E-1,9.814431190E0,9.821729390E0
3.417758718E0,-7.003039867E-2,3.776853085E-1,9.800065994E0,9.807591139E0
3.420278978E0,-7.481880486E-2,3.824737072E-1,9.804854393E0,9.812596683E0
3.422799343E0,-7.960720360E-2,3.681085110E-1,9.804854393E0,9.812084939E0
3.425319812E0,-7.481880486E-2,3.681085110E-1,9.756970406E0,9.764198545E0
3.427840385E0,-7.481880486E-2,3.872621357E-1,9.761758804E0,9.769723884E0
3.430361062E0,-8.918401599E-2,3.824737072E-1,9.804854393E0,9.812716728E0
3.432881843E0,-9.876082093E-2,3.920505345E-1,9.800065994E0,9.808402052E0
3.435402728E0,-8.918401599E-2,3.728969097E-1,9.785700798E0,9.793209178E0
3.437923666E0,-7.481880486E-2,3.824737072E-1,9.756970406E0,9.764750662E0
3.440444655E0,-7.481880486E-2,3.681085110E-1,9.785700798E0,9.792907732E0
3.442965645E0,-7.960720360E-2,3.681085110E-1,9.814431190E0,9.821654686E0
3.445486635E0,-8.918401599E-2,3.872621357E-1,9.795277596E0,9.803335602E0
3.448007624E0,-8.439560980E-2,3.824737072E-1,9.761758804E0,9.769613284E0
3.450528458E0,-7.960720360E-2,3.776853085E-1,9.780912399E0,9.788525469E0
3.453048926E0,-6.524199992E-2,3.920505345E-1,9.785700798E0,9.793768440E0
3.455569135E0,-6.045359373E-2,3.824737072E-1,9.795277596E0,9.802928335E0
3.458089343E0,-7.003039867E-2,3.872621357E-1,9.800065994E0,9.807964606E0
3.460609551E0,-7.481880486E-2,3.824737072E-1,9.795277596E0,9.803027449E0
3.463129760E0,-7.481880486E-2,4.064157307E-1,9.776124001E0,9.784854218E0
3.465649968E0,-7.960720360E-2,3.968389332E-1,9.761758804E0,9.770146028E0
3.468170176E0,-8.918401599E-2,3.920505345E-1,9.795277596E0,9.803525926E0
3.470690437E0,-7.960720360E-2,4.016273320E-1,9.824007988E0,9.832536538E0
3.473210749E0,-8.439560980E-2,3.824737072E-1,9.819219589E0,9.827028142E0
3.475731114E0,-7.003039867E-2,3.920505345E-1,9.790489197E0,9.798585949E0
3.478251583E0,-5.087678507E-2,3.968389332E-1,9.776124001E0,9.784307337E0
3.480772155E0,-7.003039867E-2,3.968389332E-1,9.761758804E0,9.770072689E0
3.483292833E0,-7.481880486E-2,4.016273320E-1,9.766547203E0,9.775088063E0
3.485813562E0,-7.003039867E-2,4.016273320E-1,9.819219589E0,9.827679386E0
3.488334343E0,-7.481880486E-2,3.776853085E-1,9.824007988E0,9.831550081E0
3.490855176E0,-7.003039867E-2,3.968389332E-1,9.824007988E0,9.832269237E0
3.493376062E0,-6.045359373E-2,3.872621357E-1,9.776124001E0,9.783978080E0
3.495896999E0,-8.439560980E-2,3.968389332E-1,9.761758804E0,9.770186217E0
3.498417989E0,-8.918401599E-2,3.968389332E-1,9.795277596E0,9.803718585E0
3.500939030E0,-7.960720360E-2,3.872621357E-1,9.785700798E0,9.793684158E0
3.503460124E0,-7.960720360E-2,4.064157307E-1,9.824007988E0,9.832733292E0
3.505981270E0,-8.439560980E-2,3.872621357E-1,9.862315178E0,9.870276351E0
3.508502416E0,-8.439560980E-2,3.920505345E-1,9.852738380E0,9.860896503E0
3.511023562E0,-6.524199992E-2,4.112041295E-1,9.785700798E0,9.794553867E0
3.513544708E0,-5.566519126E-2,4.112041295E-1,9.756970406E0,9.765790237E0
3.516065853E0,-6.524199992E-2,3.968389332E-1,9.809642792E0,9.817883140E0
3.518586999E0,-6.524199992E-2,3.968389332E-1,9.852738380E0,9.860942716E0
3.521108145E0,-7.960720360E-2,3.824737072E-1,9.809642792E0,9.817418966E0
3.523628822E0,-6.524199992E-2,3.824737072E-1,9.771335602E0,9.779035847E0
3.526149239E0,-7.481880486E-2,3.920505345E-1,9.761758804E0,9.769914863E0
3.528669655E0,-7.481880486E-2,3.872621357E-1,9.795277596E0,9.803215441E0
3.531190072E0,-7.003039867E-2,3.824737072E-1,9.766547203E0,9.774284356E0
3.533710489E0,-8.439560980E-2,3.824737072E-1,9.747393608E0,9.755259653E0
3.536230905E0,-7.960720360E-2,3.824737072E-1,9.785700798E0,9.793495982E0
3.538751374E0,-9.397241473E-2,3.776853085E-1,9.819219589E0,9.826929854E0
3.541271895E0,-6.524199992E-2,3.728969097E-1,9.804854393E0,9.812159716E0
3.543792468E0,-6.524199992E-2,3.776853085E-1,9.780912399E0,9.788419182E0
3.546313093E0,-7.481880486E-2,3.920505345E-1,9.790489197E0,9.798621341E0
3.548833770E0,-6.045359373E-2,3.872621357E-1,9.804854393E0,9.812685477E0
3.551354499E0,-7.003039867E-2,3.824737072E-1,9.795277596E0,9.802992072E0
3.553875280E0,-6.045359373E-2,3.776853085E-1,9.790489197E0,9.797957927E0
3.556396114E0,-7.960720360E-2,3.872621357E-1,9.771335602E0,9.779330688E0
3.558916999E0,-7.960720360E-2,3.776853085E-1,9.809642792E0,9.817233582E0
3.561437885E0,-7.960720360E-2,3.728969097E-1,9.790489197E0,9.797911416E0
3.563958770E0,-6.524199992E-2,3.776853085E-1,9.790489197E0,9.797988642E0
3.566479655E0,-6.045359373E-2,3.824737072E-1,9.800065994E0,9.807712999E0
3.569000541E0,-6.524199992E-2,3.681085110E-1,9.785700798E0,9.792839246E0
3.571521478E0,-6.045359373E-2,3.776853085E-1,9.780912399E0,9.788388437E0
3.574042468E0,-6.524199992E-2,3.776853085E-1,9.776124001E0,9.783634457E0
3.576563510E0,-7.960720360E-2,3.681085110E-1,9.790489197E0,9.797730344E0
3.579084551E0,-8.918401599E-2,3.824737072E-1,9.800065994E0,9.807932168E0
3.581605593E0,-8.918401599E-2,3.633201122E-1,9.804854393E0,9.811988838E0
3.584126478E0,-7.960720360E-2,3.681085110E-1,9.785700798E0,9.792945486E0
3.586647051E0,-8.439560980E-2,3.824737072E-1,9.795277596E0,9.803105219E0
3.589167624E0,-7.481880486E-2,3.920505345E-1,9.790489197E0,9.798621341E0
3.591688197E0,-7.003039867E-2,3.681085110E-1,9.800065994E0,9.807227010E0
3.594208770E0,-8.439560980E-2,3.872621357E-1,9.814431190E0,9.822431174E0
3.596729343E0,-7.960720360E-2,3.872621357E-1,9.819219589E0,9.827175719E0
3.599249916E0,-7.481880486E-2,3.776853085E-1,9.809642792E0,9.817195921E0
3.601770489E0,-7.960720360E-2,3.824737072E-1,9.790489197E0,9.798280571E0
3.604291114E0,-8.439560980E-2,3.776853085E-1,9.804854393E0,9.812488903E0
3.606811739E0,-8.918401599E-2,3.920505345E-1,9.814431190E0,9.822663437E0
3.609332364E0,-9.876082093E-2,3.920505345E-1,9.785700798E0,9.794049082E0
3.611852989E0,-7.481880486E-2,3.824737072E-1,9.785700798E0,9.793458230E0
3.614373614E0,-7.481880486E-2,3.776853085E-1,9.771335602E0,9.778918319E0
3.616894239E0,-6.045359373E-2,3.920505345E-1,9.790489197E0,9.798522183E0
3.619414864E0,-7.481880486E-2,3.681085110E-1,9.809642792E0,9.816832148E0
3.621935489E0,-6.524199992E-2,3.824737072E-1,9.809642792E0,9.817312991E0
3.624456114E0,-7.003039867E-2,3.824737072E-1,9.795277596E0,9.802992072E0
3.626976739E0,-7.481880486E-2,4.016273320E-1,9.761758804E0,9.770303850E0
3.629497416E0,-8.439560980E-2,3.920505345E-1,9.790489197E0,9.798699146E0
3.632018145E0,-8.439560980E-2,3.872621357E-1,9.795277596E0,9.803293210E0
3.634538926E0,-7.481880486E-2,3.872621357E-1,9.795277596E0,9.803215441E0
3.637059760E0,-5.087678507E-2,3.728969097E-1,9.776124001E0,9.783365527E0
3.639580645E0,-6.524199992E-2,3.824737072E-1,9.780912399E0,9.788605111E0
3.642101530E0,-7.481880486E-2,3.824737072E-1,9.785700798E0,9.793458230E0
3.644622416E0,-6.045359373E-2,3.728969097E-1,9.804854393E0,9.812129046E0
3.647143301E0,-7.960720360E-2,3.824737072E-1,9.814431190E0,9.822203573E0
3.649664239E0,-6.524199992E-2,3.776853085E-1,9.800065994E0,9.807558116E0
3.652185176E0,-6.524199992E-2,3.633201122E-1,9.804854393E0,9.811800431E0
3.654706114E0,-7.003039867E-2,3.776853085E-1,9.800065994E0,9.807591139E0
3.657227051E0,-7.481880486E-2,3.776853085E-1,9.800065994E0,9.807626499E0
3.659747989E0,-7.960720360E-2,3.776853085E-1,9.785700798E0,9.793310146E0
3.662268926E0,-7.003039867E-2,3.728969097E-1,9.800065994E0,9.807407907E0
3.664789864E0,-7.481880486E-2,3.824737072E-1,9.795277596E0,9.803027449E0
3.667310801E0,-7.481880486E-2,3.920505345E-1,9.795277596E0,9.803405768E0
3.669831322E0,-7.960720360E-2,3.872621357E-1,9.804854393E0,9.812822170E0
3.672351843E0,-7.003039867E-2,3.920505345E-1,9.785700798E0,9.793801508E0
3.674872364E0,-7.003039867E-2,4.016273320E-1,9.790489197E0,9.798973797E0
3.677392885E0,-7.960720360E-2,4.016273320E-1,9.800065994E0,9.808615362E0
3.679913405E0,-8.439560980E-2,3.968389332E-1,9.800065994E0,9.808460493E0
3.682433926E0,-8.918401599E-2,3.968389332E-1,9.790489197E0,9.798934311E0
3.684954447E0,-6.524199992E-2,3.824737072E-1,9.795277596E0,9.802959034E0
3.687474968E0,-7.003039867E-2,3.776853085E-1,9.804854393E0,9.812375865E0
3.689995489E0,-6.045359373E-2,3.920505345E-1,9.809642792E0,9.817660106E0
3.692516010E0,-7.481880486E-2,3.824737072E-1,9.819219589E0,9.826950561E0
3.695036530E0,-6.045359373E-2,3.681085110E-1,9.809642792E0,9.816733174E0
3.697557051E0,-6.524199992E-2,3.728969097E-1,9.790489197E0,9.797805231E0
3.700077572E0,-6.524199992E-2,3.776853085E-1,9.800065994E0,9.807558116E0
3.702598093E0,-6.045359373E-2,3.824737072E-1,9.804854393E0,9.812497666E0
3.705118614E0,-7.481880486E-2,3.872621357E-1,9.819219589E0,9.827138096E0
3.707639135E0,-8.439560980E-2,3.872621357E-1,9.804854393E0,9.812862184E0
3.710159655E0,-7.481880486E-2,3.968389332E-1,9.790489197E0,9.798814097E0
3.712680176E0,-7.960720360E-2,3.824737072E-1,9.790489197E0,9.798280571E0
3.715200697E0,-7.960720360E-2,3.776853085E-1,9.785700798E0,9.793310146E0
3.717721218E0,-7.003039867E-2,3.872621357E-1,9.780912399E0,9.788826466E0
3.720241739E0,-7.003039867E-2,3.824737072E-1,9.795277596E0,9.802992072E0
3.722762260E0,-7.960720360E-2,3.776853085E-1,9.804854393E0,9.812448887E0
3.725282780E0,-7.003039867E-2,3.968389332E-1,9.814431190E0,9.822700494E0
3.727803301E0,-7.481880486E-2,3.824737072E-1,9.800065994E0,9.807812064E0
3.730323822E0,-8.439560980E-2,3.633201122E-1,9.795277596E0,9.802376615E0
3.732844291E0,-7.960720360E-2,3.728969097E-1,9.780912399E0,9.788341881E0
3.735364655E0,-7.960720360E-2,4.016273320E-1,9.795277596E0,9.803831139E0
3.737885020E0,-7.481880486E-2,3.872621357E-1,9.780912399E0,9.788861894E0
3.740405385E0,-7.003039867E-2,3.728969097E-1,9.795277596E0,9.802623095E0
3.742925749E0,-7.960720360E-2,3.872621357E-1,9.809642792E0,9.817606682E0
3.745446114E0,-7.003039867E-2,3.728969097E-1,9.776124001E0,9.783483880E0
3.747966530E0,-7.960720360E-2,3.681085110E-1,9.785700798E0,9.792945486E0
3.750486999E0,-7.960720360E-2,3.824737072E-1,9.790489197E0,9.798280571E0
3.753007520E0,-6.524199992E-2,3.872621357E-1,9.780912399E0,9.788793380E0
3.755528093E0,-8.439560980E-2,3.920505345E-1,9.790489197E0,9.798699146E0
3.758048718E0,-6.524199992E-2,3.920505345E-1,9.795277596E0,9.803337356E0
3.760569395E0,-7.481880486E-2,3.872621357E-1,9.795277596E0,9.803215441E0
3.763090124E0,-7.003039867E-2,3.776853085E-1,9.795277596E0,9.802806416E0
3.765610853E0,-7.003039867E-2,3.776853085E-1,9.804854393E0,9.812375865E0
3.768131583E0,-8.439560980E-2,3.824737072E-1,9.800065994E0,9.807889796E0
3.770652364E0,-7.960720360E-2,3.776853085E-1,9.800065994E0,9.807664196E0
3.773173145E0,-6.045359373E-2,3.776853085E-1,9.785700798E0,9.793173180E0
3.775693926E0,-6.524199992E-2,3.824737072E-1,9.776124001E0,9.783820477E0
3.778214708E0,-7.481880486E-2,3.728969097E-1,9.785700798E0,9.793088893E0
3.780735489E0,-7.003039867E-2,3.920505345E-1,9.800065994E0,9.808154840E0
3.783256270E0,-6.045359373E-2,3.968389332E-1,9.780912399E0,9.789146190E0
3.785777051E0,-7.003039867E-2,4.016273320E-1,9.814431190E0,9.822895111E0
3.788297833E0,-7.003039867E-2,3.824737072E-1,9.795277596E0,9.802992072E0
3.790818614E0,-6.524199992E-2,3.968389332E-1,9.780912399E0,9.789176933E0
3.793339395E0,-6.524199992E-2,3.920505345E-1,9.776124001E0,9.784199539E0
3.795860176E0,-7.481880486E-2,3.824737072E-1,9.785700798E0,9.793458230E0
3.798380905E0,-7.481880486E-2,4.016273320E-1,9.809642792E0,9.818146163E0
3.800901478E0,-7.960720360E-2,3.872621357E-1,9.795277596E0,9.803253156E0
3.803422051E0,-6.524199992E-2,3.824737072E-1,9.785700798E0,9.793389748E0
3.805942624E0,-7.481880486E-2,4.064157307E-1,9.795277596E0,9.803990757E0
3.808463197E0,-8.918401599E-2,3.824737072E-1,9.785700798E0,9.793578510E0
3.810983770E0,-8.918401599E-2,3.776853085E-1,9.790489197E0,9.798177315E0
3.813504343E0,-7.481880486E-2,3.920505345E-1,9.809642792E0,9.817759071E0
3.816024916E0,-7.481880486E-2,4.016273320E-1,9.785700798E0,9.794224955E0
3.818545489E0,-7.481880486E-2,3.872621357E-1,9.780912399E0,9.788861894E0
3.821066062E0,-7.481880486E-2,3.968389332E-1,9.771335602E0,9.779676806E0
3.823586635E0,-6.045359373E-2,3.872621357E-1,9.790489197E0,9.798331762E0
3.826107208E0,-8.439560980E-2,3.872621357E-1,9.795277596E0,9.803293210E0
3.828627780E0,-7.481880486E-2,3.920505345E-1,9.790489197E0,9.798621341E0
3.831148353E0,-8.439560980E-2,4.016273320E-1,9.814431190E0,9.823008028E0
3.833668926E0,-7.960720360E-2,3.824737072E-1,9.804854393E0,9.812634361E0
3.836189499E0,-7.960720360E-2,3.776853085E-1,9.780912399E0,9.788525469E0
3.838710072E0,-7.960720360E-2,3.920505345E-1,9.785700798E0,9.793874669E0
3.841230645E0,-6.524199992E-2,4.016273320E-1,9.795277596E0,9.803725017E0
3.843751270E0,-7.003039867E-2,3.968389332E-1,9.819219589E0,9.827484863E0
3.846271947E0,-7.960720360E-2,3.824737072E-1,9.800065994E0,9.807849761E0
3.848792676E0,-7.003039867E-2,3.824737072E-1,9.790489197E0,9.798207443E0
3.851313458E0,-7.481880486E-2,3.920505345E-1,9.804854393E0,9.812974633E0
3.853834291E0,-6.524199992E-2,3.872621357E-1,9.800065994E0,9.807931585E0
3.856355124E0,-7.960720360E-2,3.968389332E-1,9.790489197E0,9.798851829E0
3.858875958E0,-8.439560980E-2,4.016273320E-1,9.776124001E0,9.784734417E0
3.861396791E0,-8.439560980E-2,3.968389332E-1,9.790489197E0,9.798891900E0
3.863917624E0,-9.397241473E-2,3.872621357E-1,9.790489197E0,9.798595894E0
3.866438458E0,-7.960720360E-2,3.920505345E-1,9.800065994E0,9.808227894E0
3.868959291E0,-6.045359373E-2,3.872621357E-1,9.800065994E0,9.807900901E0
3.871480124E0,-5.566519126E-2,3.920505345E-1,9.804854393E0,9.812847288E0
3.874000853E0,-7.003039867E-2,3.920505345E-1,9.795277596E0,9.803370392E0
3.876521374E0,-7.960720360E-2,3.776853085E-1,9.785700798E0,9.793310146E0
3.879041895E0,-8.439560980E-2,3.824737072E-1,9.795277596E0,9.803105219E0
3.881562416E0,-7.481880486E-2,3.872621357E-1,9.785700798E0,9.793646406E0
3.884082937E0,-7.960720360E-2,3.824737072E-1,9.804854393E0,9.812634361E0
3.886603458E0,-8.439560980E-2,3.681085110E-1,9.776124001E0,9.783415915E0
3.889123978E0,-9.397241473E-2,3.681085110E-1,9.790489197E0,9.797857592E0
3.891643435E0,-7.003039867E-2,3.728969097E-1,9.795277596E0,9.802623095E0
3.894163956E0,-7.960720360E-2,3.681085110E-1,9.800065994E0,9.807300071E0
3.896684477E0,-8.918401599E-2,3.728969097E-1,9.814431190E0,9.821917607E0
3.899204998E0,-6.045359373E-2,3.776853085E-1,9.795277596E0,9.802742678E0
3.901725519E0,-6.524199992E-2,3.920505345E-1,9.800065994E0,9.808121820E0
3.904246039E0,-6.045359373E-2,3.872621357E-1,9.785700798E0,9.793547197E0
3.906766560E0,-7.003039867E-2,3.728969097E-1,9.809642792E0,9.816977542E0
3.909287081E0,-7.960720360E-2,3.776853085E-1,9.785700798E0,9.793310146E0
3.911807602E0,-7.003039867E-2,3.920505345E-1,9.795277596E0,9.803370392E0
3.914328123E0,-7.003039867E-2,3.824737072E-1,9.800065994E0,9.807776705E0
3.916848696E0,-7.481880486E-2,3.968389332E-1,9.800065994E0,9.808382766E0
3.919369321E0,-6.045359373E-2,3.920505345E-1,9.785700798E0,9.793737712E0
3.921889998E0,-5.087678507E-2,3.776853085E-1,9.800065994E0,9.807473076E0
3.924410727E0,-6.045359373E-2,3.776853085E-1,9.809642792E0,9.817096950E0
3.926931508E0,-5.566519126E-2,3.824737072E-1,9.800065994E0,9.807684652E0
3.929452341E0,-7.960720360E-2,3.824737072E-1,9.790489197E0,9.798280571E0
3.931973175E0,-7.481880486E-2,3.872621357E-1,9.785700798E0,9.793646406E0
3.934494008E0,-8.918401599E-2,3.872621357E-1,9.780912399E0,9.788982231E0
3.937014841E0,-7.481880486E-2,3.776853085E-1,9.785700798E0,9.793272393E0
3.939535675E0,-7.481880486E-2,3.920505345E-1,9.785700798E0,9.793836918E0
3.942056508E0,-6.524199992E-2,3.920505345E-1,9.780912399E0,9.788983987E0
3.944577341E0,-7.960720360E-2,3.824737072E-1,9.790489197E0,9.798280571E0
3.947098227E0,-7.003039867E-2,3.681085110E-1,9.785700798E0,9.792872318E0
3.949619164E0,-7.960720360E-2,3.728969097E-1,9.814431190E0,9.821835318E0
3.952140102E0,-7.481880486E-2,3.872621357E-1,9.824007988E0,9.831922638E0
3.954661039E0,-7.481880486E-2,3.824737072E-1,9.800065994E0,9.807812064E0
3.957181977E0,-8.439560980E-2,3.681085110E-1,9.780912399E0,9.788200747E0
3.959702914E0,-8.918401599E-2,3.872621357E-1,9.780912399E0,9.788982231E0
3.962223696E0,-8.439560980E-2,3.920505345E-1,9.814431190E0,9.822621128E0
3.964744112E0,-7.960720360E-2,3.681085110E-1,9.809642792E0,9.816869811E0
3.967264529E0,-6.524199992E-2,3.776853085E-1,9.804854393E0,9.812342859E0
3.969784946E0,-7.003039867E-2,3.872621357E-1,9.795277596E0,9.803180065E0
3.972305414E0,-7.960720360E-2,3.824737072E-1,9.790489197E0,9.798280571E0
3.974825987E0,-7.481880486E-2,3.728969097E-1,9.795277596E0,9.802658473E0
3.977346664E0,-7.003039867E-2,3.872621357E-1,9.795277596E0,9.803180065E0
3.979867446E0,-6.045359373E-2,3.968389332E-1,9.804854393E0,9.813068095E0
3.982388331E0,-8.918401599E-2,3.776853085E-1,9.790489197E0,9.798177315E0
3.984909321E0,-9.397241473E-2,3.824737072E-1,9.780912399E0,9.788838762E0
3.987430414E0,-7.960720360E-2,4.016273320E-1,9.776124001E0,9.784694287E0
3.989951612E0,-8.439560980E-2,3.920505345E-1,9.776124001E0,9.784346003E0
3.992472914E0,-7.481880486E-2,3.824737072E-1,9.790489197E0,9.798242837E0
3.994994269E0,-7.960720360E-2,3.633201122E-1,9.800065994E0,9.807121510E0
3.997515675E0,-7.481880486E-2,3.872621357E-1,9.785700798E0,9.793646406E0
4.000037133E0,-7.481880486E-2,3.824737072E-1,9.780912399E0,9.788673626E0
4.002558591E0,-7.003039867E-2,3.824737072E-1,9.776124001E0,9.783853580E0
4.005080050E0,-8.439560980E-2,3.920505345E-1,9.800065994E0,9.808267927E0
4.007600987E0,-7.481880486E-2,3.872621357E-1,9.809642792E0,9.817569023E0
4.010121560E0,-7.481880486E-2,3.920505345E-1,9.819219589E0,9.827327959E0
4.012642081E0,-7.481880486E-2,3.824737072E-1,9.780912399E0,9.788673626E0
4.015162602E0,-7.960720360E-2,3.968389332E-1,9.785700798E0,9.794067518E0
4.017683123E0,-7.960720360E-2,3.824737072E-1,9.800065994E0,9.807849761E0
4.020203644E0,-8.918401599E-2,3.920505345E-1,9.785700798E0,9.793957194E0
4.022724164E0,-7.481880486E-2,3.920505345E-1,9.780912399E0,9.789052499E0
4.025244685E0,-7.481880486E-2,3.776853085E-1,9.785700798E0,9.793272393E0
4.027765206E0,-6.045359373E-2,3.633201122E-1,9.785700798E0,9.792629690E0
4.030285727E0,-8.918401599E-2,3.728969097E-1,9.795277596E0,9.802778640E0
4.032806144E0,-7.003039867E-2,3.728969097E-1,9.795277596E0,9.802623095E0
4.035326560E0,-6.524199992E-2,3.824737072E-1,9.800065994E0,9.807743683E0
4.037846977E0,-7.960720360E-2,3.728969097E-1,9.790489197E0,9.797911416E0
4.040367394E0,-7.481880486E-2,3.824737072E-1,9.790489197E0,9.798242837E0
4.042887810E0,-7.003039867E-2,3.920505345E-1,9.814431190E0,9.822508207E0
4.045408227E0,-6.045359373E-2,3.872621357E-1,9.819219589E0,9.827039226E0
4.047928644E0,-7.481880486E-2,3.681085110E-1,9.824007988E0,9.831186840E0
4.050449112E0,-7.003039867E-2,3.776853085E-1,9.809642792E0,9.817160595E0
4.052969633E0,-7.003039867E-2,3.872621357E-1,9.790489197E0,9.798395528E0
4.055490206E0,-7.003039867E-2,3.776853085E-1,9.790489197E0,9.798021696E0
4.058010831E0,-7.003039867E-2,3.681085110E-1,9.795277596E0,9.802442109E0
4.060531508E0,-6.524199992E-2,3.824737072E-1,9.780912399E0,9.788605111E0
4.063052237E0,-7.003039867E-2,3.872621357E-1,9.800065994E0,9.807964606E0
4.065573019E0,-7.003039867E-2,3.920505345E-1,9.809642792E0,9.817723747E0
4.068093852E0,-7.003039867E-2,3.824737072E-1,9.790489197E0,9.798207443E0
4.070614737E0,-7.003039867E-2,3.728969097E-1,9.785700798E0,9.793053480E0
4.073135623E0,-7.481880486E-2,3.824737072E-1,9.800065994E0,9.807812064E0
4.075656508E0,-7.960720360E-2,4.112041295E-1,9.800065994E0,9.809012164E0
4.078177394E0,-7.960720360E-2,3.920505345E-1,9.819219589E0,9.827365581E0
4.080698279E0,-6.045359373E-2,3.968389332E-1,9.809642792E0,9.817852488E0
4.083219164E0,-7.003039867E-2,3.920505345E-1,9.790489197E0,9.798585949E0
4.085739581E0,-7.003039867E-2,3.920505345E-1,9.780912399E0,9.789017072E0
4.088259998E0,-6.524199992E-2,3.968389332E-1,9.785700798E0,9.793961291E0
4.090780414E0,-7.481880486E-2,3.728969097E-1,9.795277596E0,9.802658473E0
4.093300831E0,-8.918401599E-2,3.728969097E-1,9.790489197E0,9.797993907E0
4.095821248E0,-8.439560980E-2,3.968389332E-1,9.785700798E0,9.794107610E0
4.098341664E0,-7.003039867E-2,3.776853085E-1,9.790489197E0,9.798021696E0
4.100862029E0,-7.481880486E-2,3.681085110E-1,9.785700798E0,9.792907732E0
4.103382394E0,-7.481880486E-2,3.824737072E-1,9.795277596E0,9.803027449E0
4.105902758E0,-7.003039867E-2,3.920505345E-1,9.795277596E0,9.803370392E0
4.108423123E0,-7.960720360E-2,3.920505345E-1,9.804854393E0,9.813012310E0
4.110943539E0,-7.481880486E-2,3.824737072E-1,9.785700798E0,9.793458230E0
4.113464008E0,-8.439560980E-2,3.728969097E-1,9.790489197E0,9.797951492E0
4.115984529E0,-6.524199992E-2,3.824737072E-1,9.795277596E0,9.802959034E0
4.118505102E0,-7.481880486E-2,3.776853085E-1,9.800065994E0,9.807626499E0
4.121025727E0,-7.481880486E-2,3.776853085E-1,9.800065994E0,9.807626499E0
4.123546404E0,-7.003039867E-2,3.776853085E-1,9.785700798E0,9.793236981E0
4.126067133E0,-6.045359373E-2,3.776853085E-1,9.795277596E0,9.802742678E0
4.128587914E0,-7.003039867E-2,3.728969097E-1,9.785700798E0,9.793053480E0
4.131108696E0,-8.439560980E-2,3.968389332E-1,9.804854393E0,9.813244796E0
4.133629477E0,-9.397241473E-2,3.968389332E-1,9.819219589E0,9.827684636E0
4.136150258E0,-8.439560980E-2,3.968389332E-1,9.804854393E0,9.813244796E0
4.138671039E0,-6.524199992E-2,4.016273320E-1,9.800065994E0,9.808509292E0
4.141191769E0,-6.524199992E-2,3.968389332E-1,9.776124001E0,9.784392579E0
4.143712446E0,-7.003039867E-2,3.920505345E-1,9.785700798E0,9.793801508E0
