"Time (s)","Acceleration x (m/s^2)","Acceleration y (m/s^2)","Acceleration z (m/s^2)","Absolute acceleration (m/s^2)"
1.877153100E-2,1.406593472E-1,1.526303589E-1,9.598953247E0,9.601197036E0
2.127903100E-2,1.167173311E-1,1.765723825E-1,9.661202431E0,9.663520743E0
2.378887500E-2,1.310825497E-1,2.005143911E-1,9.761758804E0,9.764697825E0
2.630137500E-2,1.550245583E-1,2.244564146E-1,9.838373184E0,9.842154246E0
2.881679100E-2,1.741781682E-1,2.244564146E-1,9.895833969E0,9.899911548E0
3.133522900E-2,1.646013707E-1,2.292448133E-1,9.891045570E0,9.895070958E0
3.385668700E-2,1.741781682E-1,2.100912035E-1,9.843161583E0,9.846944008E0
3.638101000E-2,1.693897694E-1,2.005143911E-1,9.838373184E0,9.841874101E0
3.890793700E-2,1.646013707E-1,1.622071713E-1,9.838373184E0,9.841086916E0
4.143715600E-2,1.502361596E-1,1.334767491E-1,9.886257172E0,9.888299541E0
4.396825000E-2,1.550245583E-1,1.047463268E-1,9.943717957E0,9.945477927E0
4.650069800E-2,1.406593472E-1,9.038111567E-2,9.953294754E0,9.954698903E0
4.903403100E-2,1.502361596E-1,9.516951442E-2,9.910199165E0,9.911794774E0
5.156772900E-2,1.598129570E-1,1.143231317E-1,9.871891975E0,9.873847332E0
5.409715600E-2,1.598129570E-1,1.143231317E-1,9.838373184E0,9.840335201E0
5.661798900E-2,1.598129570E-1,1.334767491E-1,9.852738380E0,9.854938347E0
5.913882300E-2,1.598129570E-1,1.669955701E-1,9.891045570E0,9.893746013E0
6.165965600E-2,1.550245583E-1,1.813607812E-1,9.905410767E0,9.908283747E0
6.418048900E-2,1.741781682E-1,1.909375787E-1,9.910199165E0,9.913568615E0
6.670132300E-2,1.837549806E-1,1.957259923E-1,9.895833969E0,9.899474961E0
6.922220800E-2,1.885433793E-1,2.005143911E-1,9.876680374E0,9.880514655E0
7.174314600E-2,1.933317930E-1,1.957259923E-1,9.800065994E0,9.803926731E0
7.426413500E-2,2.124854028E-1,1.765723825E-1,9.723451614E0,9.727375759E0
7.678517700E-2,2.124854028E-1,1.669955701E-1,9.670779228E0,9.674554690E0
7.930627100E-2,2.124854028E-1,1.526303589E-1,9.656414032E0,9.659957455E0
8.182736400E-2,2.124854028E-1,1.382651478E-1,9.675567627E0,9.678888170E0
8.434845800E-2,1.981201917E-1,1.238999367E-1,9.694721222E0,9.697536923E0
8.686955200E-2,2.029085904E-1,9.995792061E-2,9.709086418E0,9.711720885E0
8.939069800E-2,1.981201917E-1,1.047463268E-1,9.699509621E0,9.702098241E0
9.191189600E-2,2.076970041E-1,9.516951442E-2,9.704298019E0,9.706986934E0
9.443314600E-2,2.172738016E-1,1.095347255E-1,9.718663216E0,9.721708721E0
9.695439600E-2,1.933317930E-1,1.238999367E-1,9.752182007E0,9.754885047E0
9.947564600E-2,1.981201917E-1,1.286883354E-1,9.771335602E0,9.774191104E0
1.019968960E-1,1.741781682E-1,1.430535465E-1,9.771335602E0,9.773934816E0
1.045181460E-1,1.789665818E-1,1.382651478E-1,9.790489197E0,9.793100888E0
1.070393960E-1,1.598129570E-1,1.430535465E-1,9.795277596E0,9.797625614E0
1.095606460E-1,1.646013707E-1,1.430535465E-1,9.771335602E0,9.773768842E0
1.120818960E-1,1.789665818E-1,1.382651478E-1,9.747393608E0,9.750016843E0
1.146029890E-1,1.837549806E-1,1.286883354E-1,9.728240013E0,9.730826292E0
1.171238230E-1,1.693897694E-1,1.334767491E-1,9.718663216E0,9.721055685E0
1.196446560E-1,1.550245583E-1,1.382651478E-1,9.723451614E0,9.725670217E0
1.221654890E-1,1.550245583E-1,1.430535465E-1,9.771335602E0,9.773612248E0
1.246863230E-1,1.598129570E-1,1.095347255E-1,9.804854393E0,9.806768464E0
1.272071560E-1,1.598129570E-1,1.191115379E-1,9.804854393E0,9.806880106E0
1.297279890E-1,1.550245583E-1,1.047463268E-1,9.828796387E0,9.830576932E0
1.322488230E-1,1.550245583E-1,1.143231317E-1,9.857526779E0,9.859408532E0
1.347696560E-1,1.454477459E-1,1.238999367E-1,9.867103577E0,9.868953300E0
1.372904890E-1,1.502361596E-1,1.382651478E-1,9.881468773E0,9.883577959E0
1.398113230E-1,1.358709484E-1,1.382651478E-1,9.886257172E0,9.888157514E0
1.423321560E-1,1.262941360E-1,1.382651478E-1,9.891045570E0,9.892818099E0
1.448529890E-1,1.215057373E-1,1.430535465E-1,9.895833969E0,9.897613748E0
1.473738230E-1,1.167173311E-1,1.478419602E-1,9.895833969E0,9.897626489E0
1.498946560E-1,1.262941360E-1,1.430535465E-1,9.876680374E0,9.878523662E0
1.524154890E-1,1.310825497E-1,1.526303589E-1,9.847949982E0,9.850004949E0
1.549363230E-1,1.358709484E-1,1.478419602E-1,9.833584785E0,9.835634595E0
1.574571560E-1,1.454477459E-1,1.430535465E-1,9.819219589E0,9.821338641E0
1.599780410E-1,1.310825497E-1,1.334767491E-1,9.814431190E0,9.816214050E0
1.624989790E-1,1.358709484E-1,1.382651478E-1,9.814431190E0,9.816345438E0
1.650199690E-1,1.550245583E-1,1.478419602E-1,9.828796387E0,9.831130569E0
1.675410100E-1,1.550245583E-1,1.430535465E-1,9.800065994E0,9.802335968E0
1.700621040E-1,1.885433793E-1,1.622071713E-1,9.814431190E0,9.817582155E0
1.725832500E-1,1.837549806E-1,1.669955701E-1,9.780912399E0,9.784063613E0
1.751044480E-1,1.741781682E-1,1.574187577E-1,9.776124001E0,9.778942641E0
1.776256980E-1,1.646013707E-1,1.478419602E-1,9.756970406E0,9.759478590E0
1.801470520E-1,1.789665818E-1,1.622071713E-1,9.747393608E0,9.750385754E0
1.826685100E-1,1.693897694E-1,1.813607812E-1,9.747393608E0,9.750552127E0
1.851900730E-1,1.741781682E-1,1.717839688E-1,9.728240013E0,9.731315508E0
1.877117390E-1,1.837549806E-1,1.669955701E-1,9.718663216E0,9.721834606E0
1.902334580E-1,1.981201917E-1,1.717839688E-1,9.723451614E0,9.726986822E0
1.927552290E-1,2.029085904E-1,1.526303589E-1,9.718663216E0,9.721979357E0
1.952770000E-1,1.933317930E-1,1.765723825E-1,9.694721222E0,9.698256264E0
1.977987190E-1,1.837549806E-1,1.669955701E-1,9.709086418E0,9.712260936E0
2.003197080E-1,1.981201917E-1,1.622071713E-1,9.728240013E0,9.731609144E0
2.028404370E-1,1.837549806E-1,1.669955701E-1,9.756970406E0,9.760129349E0
2.053611660E-1,1.837549806E-1,1.717839688E-1,9.766547203E0,9.769786072E0
2.078818960E-1,1.981201917E-1,1.622071713E-1,9.776124001E0,9.779476635E0
2.104026250E-1,1.789665818E-1,1.765723825E-1,9.766547203E0,9.769782552E0
2.129233540E-1,1.789665818E-1,1.765723825E-1,9.780912399E0,9.784142998E0
2.154440830E-1,1.789665818E-1,1.765723825E-1,9.785700798E0,9.788929816E0
2.179648120E-1,1.693897694E-1,1.861491799E-1,9.780912399E0,9.784150028E0
2.204855410E-1,1.741781682E-1,2.053027898E-1,9.809642792E0,9.813336791E0
2.230063230E-1,1.933317930E-1,1.957259923E-1,9.809642792E0,9.813499760E0
2.255271040E-1,1.837549806E-1,1.957259923E-1,9.809642792E0,9.813315763E0
2.280478850E-1,1.837549806E-1,2.005143911E-1,9.809642792E0,9.813412435E0
2.305686660E-1,1.933317930E-1,1.909375787E-1,9.809642792E0,9.813405425E0
2.330894480E-1,1.693897694E-1,1.957259923E-1,9.819219589E0,9.822630752E0
2.356102290E-1,1.598129570E-1,1.861491799E-1,9.814431190E0,9.817497201E0
2.381310100E-1,1.693897694E-1,1.622071713E-1,9.852738380E0,9.855529293E0
2.406517910E-1,1.550245583E-1,1.622071713E-1,9.847949982E0,9.850505704E0
2.431725730E-1,1.693897694E-1,1.526303589E-1,9.871891975E0,9.874524803E0
2.456933540E-1,1.550245583E-1,1.526303589E-1,9.881468773E0,9.883863301E0
2.482141350E-1,1.358709484E-1,1.526303589E-1,9.871891975E0,9.874006690E0
2.507349160E-1,1.550245583E-1,1.526303589E-1,9.881468773E0,9.883863301E0
2.532556980E-1,1.550245583E-1,1.717839688E-1,9.871891975E0,9.874603461E0
2.557764790E-1,1.550245583E-1,1.717839688E-1,9.852738380E0,9.855455136E0
2.582972600E-1,1.406593472E-1,1.574187577E-1,9.814431190E0,9.816701346E0
2.608180410E-1,1.454477459E-1,1.574187577E-1,9.795277596E0,9.797622104E0
2.633388750E-1,1.598129570E-1,1.717839688E-1,9.790489197E0,9.793300191E0
2.658597080E-1,1.502361596E-1,1.717839688E-1,9.766547203E0,9.769213116E0
2.683805410E-1,1.550245583E-1,1.669955701E-1,9.737816811E0,9.740482348E0
2.709013750E-1,1.693897694E-1,1.717839688E-1,9.747393608E0,9.750378699E0
2.734222080E-1,1.598129570E-1,1.526303589E-1,9.742605209E0,9.745111209E0
2.759430410E-1,1.550245583E-1,1.382651478E-1,9.752182007E0,9.754394074E0
2.784638750E-1,1.550245583E-1,1.191115379E-1,9.742605209E0,9.744566508E0
2.809847080E-1,1.598129570E-1,1.334767491E-1,9.766547203E0,9.768766580E0
2.835055410E-1,1.646013707E-1,1.286883354E-1,9.761758804E0,9.763994534E0
2.860263750E-1,1.598129570E-1,1.238999367E-1,9.756970406E0,9.759065676E0
2.885472080E-1,1.598129570E-1,1.095347255E-1,9.752182007E0,9.754106414E0
2.910680410E-1,1.550245583E-1,1.382651478E-1,9.766547203E0,9.768756018E0
2.935888750E-1,1.454477459E-1,1.334767491E-1,9.747393608E0,9.749392455E0
2.961097080E-1,1.693897694E-1,1.191115379E-1,9.747393608E0,9.749592946E0
2.986305410E-1,1.837549806E-1,1.191115379E-1,9.752182007E0,9.754640298E0
3.011513750E-1,1.741781682E-1,1.191115379E-1,9.752182007E0,9.754464593E0
3.036722080E-1,1.981201917E-1,1.238999367E-1,9.752182007E0,9.754981122E0
3.061930940E-1,1.837549806E-1,1.334767491E-1,9.776124001E0,9.778761803E0
3.087140310E-1,1.837549806E-1,1.478419602E-1,9.771335602E0,9.774181428E0
3.112350210E-1,1.885433793E-1,1.430535465E-1,9.752182007E0,9.755053399E0
3.137560620E-1,1.741781682E-1,1.382651478E-1,9.761758804E0,9.764291589E0
3.162772080E-1,1.885433793E-1,1.478419602E-1,9.785700798E0,9.788633508E0
3.187984580E-1,1.837549806E-1,1.382651478E-1,9.795277596E0,9.797976644E0
3.213198120E-1,1.693897694E-1,1.382651478E-1,9.800065994E0,9.802504967E0
3.238412710E-1,1.933317930E-1,1.286883354E-1,9.828796387E0,9.831539873E0
3.263628330E-1,1.789665818E-1,1.382651478E-1,9.833584785E0,9.836185034E0
3.288844480E-1,1.789665818E-1,1.382651478E-1,9.852738380E0,9.855333575E0
3.314060620E-1,1.885433793E-1,1.286883354E-1,9.847949982E0,9.850595319E0
3.339276770E-1,1.837549806E-1,1.334767491E-1,9.852738380E0,9.855355677E0
3.364489270E-1,1.789665818E-1,1.191115379E-1,9.843161583E0,9.845508953E0
3.389696560E-1,1.837549806E-1,1.334767491E-1,9.833584785E0,9.836207179E0
3.414902290E-1,1.741781682E-1,1.478419602E-1,9.852738380E0,9.855386795E0
3.440108020E-1,1.789665818E-1,1.478419602E-1,9.862315178E0,9.865046728E0
3.465313750E-1,1.933317930E-1,1.526303589E-1,9.852738380E0,9.855816902E0
3.490519480E-1,1.741781682E-1,1.526303589E-1,9.852738380E0,9.855459789E0
3.515725730E-1,1.741781682E-1,1.478419602E-1,9.814431190E0,9.817089939E0
3.540932500E-1,1.933317930E-1,1.430535465E-1,9.814431190E0,9.817377506E0
3.566139790E-1,1.741781682E-1,1.430535465E-1,9.804854393E0,9.807444724E0
3.591347600E-1,1.646013707E-1,1.478419602E-1,9.785700798E0,9.788201621E0
3.616555940E-1,1.646013707E-1,1.430535465E-1,9.795277596E0,9.797704889E0
3.641765310E-1,1.741781682E-1,1.478419602E-1,9.790489197E0,9.793154445E0
3.666975210E-1,1.741781682E-1,1.526303589E-1,9.785700798E0,9.788440845E0
3.692186140E-1,1.789665818E-1,1.478419602E-1,9.776124001E0,9.778879627E0
3.717397600E-1,1.693897694E-1,1.382651478E-1,9.776124001E0,9.778568945E0
3.742609580E-1,1.741781682E-1,1.334767491E-1,9.795277596E0,9.797735312E0
3.767822080E-1,1.693897694E-1,1.382651478E-1,9.776124001E0,9.778568945E0
3.793035100E-1,1.598129570E-1,1.382651478E-1,9.742605209E0,9.744896803E0
3.818248120E-1,1.646013707E-1,1.478419602E-1,9.747393608E0,9.749904256E0
3.843461140E-1,1.693897694E-1,1.334767491E-1,9.766547203E0,9.768927946E0
3.868674160E-1,1.646013707E-1,1.191115379E-1,9.752182007E0,9.754298287E0
3.893884060E-1,1.502361596E-1,1.334767491E-1,9.742605209E0,9.744677686E0
3.919092390E-1,1.550245583E-1,1.430535465E-1,9.737816811E0,9.740101291E0
3.944300730E-1,1.646013707E-1,1.430535465E-1,9.733028412E0,9.735471226E0
3.969508020E-1,1.741781682E-1,1.478419602E-1,9.742605209E0,9.745283554E0
3.994715310E-1,1.646013707E-1,1.574187577E-1,9.742605209E0,9.745267084E0
4.019922600E-1,1.502361596E-1,1.430535465E-1,9.766547203E0,9.768750150E0
4.045129890E-1,1.550245583E-1,1.334767491E-1,9.785700798E0,9.787838820E0
4.070337190E-1,1.598129570E-1,1.478419602E-1,9.771335602E0,9.773760631E0
4.095544480E-1,1.550245583E-1,1.382651478E-1,9.771335602E0,9.773543334E0
4.120751770E-1,1.598129570E-1,1.478419602E-1,9.790489197E0,9.792909483E0
4.145959060E-1,1.693897694E-1,1.526303589E-1,9.780912399E0,9.783569711E0
4.171166350E-1,1.646013707E-1,1.238999367E-1,9.776124001E0,9.778294600E0
4.196373640E-1,1.598129570E-1,1.286883354E-1,9.790489197E0,9.792639051E0
4.221580940E-1,1.502361596E-1,1.382651478E-1,9.809642792E0,9.811767418E0
4.246788230E-1,1.741781682E-1,1.382651478E-1,9.814431190E0,9.816950386E0
4.271995520E-1,1.693897694E-1,1.382651478E-1,9.790489197E0,9.792930555E0
4.297202810E-1,1.454477459E-1,1.430535465E-1,9.804854393E0,9.806976549E0
4.322410100E-1,1.550245583E-1,1.334767491E-1,9.819219589E0,9.821350314E0
4.347617390E-1,1.693897694E-1,1.430535465E-1,9.833584785E0,9.836083923E0
4.372824690E-1,1.550245583E-1,1.238999367E-1,9.843161583E0,9.845161947E0
4.398032500E-1,1.789665818E-1,1.191115379E-1,9.833584785E0,9.835934441E0
4.423240830E-1,1.789665818E-1,1.334767491E-1,9.833584785E0,9.836118890E0
4.448449160E-1,1.789665818E-1,1.334767491E-1,9.838373184E0,9.840906055E0
4.473657500E-1,1.885433793E-1,1.382651478E-1,9.819219589E0,9.822002810E0
4.498865830E-1,2.029085904E-1,1.334767491E-1,9.828796387E0,9.831796700E0
4.524073640E-1,1.885433793E-1,1.238999367E-1,9.833584785E0,9.836172504E0
4.549281460E-1,1.693897694E-1,1.238999367E-1,9.838373184E0,9.840611312E0
4.574489270E-1,1.837549806E-1,1.286883354E-1,9.824007988E0,9.826569062E0
4.599697080E-1,1.933317930E-1,1.143231317E-1,9.790489197E0,9.793065183E0
4.624904890E-1,1.885433793E-1,1.047463268E-1,9.809642792E0,9.812013662E0
4.650113230E-1,1.789665818E-1,1.047463268E-1,9.809642792E0,9.811834310E0
4.675322080E-1,1.789665818E-1,1.095347255E-1,9.780912399E0,9.783162794E0
4.700531460E-1,1.837549806E-1,1.191115379E-1,9.790489197E0,9.792937872E0
4.725741350E-1,1.789665818E-1,1.143231317E-1,9.800065994E0,9.802366669E0
4.750951770E-1,1.933317930E-1,1.143231317E-1,9.785700798E0,9.788278044E0
4.776162710E-1,1.837549806E-1,1.191115379E-1,9.790489197E0,9.792937872E0
4.801374160E-1,1.789665818E-1,9.995792061E-2,9.756970406E0,9.759123532E0
4.826585620E-1,1.789665818E-1,1.238999367E-1,9.776124001E0,9.778546963E0
4.851797080E-1,1.693897694E-1,1.334767491E-1,9.780912399E0,9.783289646E0
4.877008540E-1,1.646013707E-1,1.286883354E-1,9.780912399E0,9.783143751E0
4.902220000E-1,1.933317930E-1,1.238999367E-1,9.756970406E0,9.759672119E0
4.927429890E-1,1.741781682E-1,1.286883354E-1,9.761758804E0,9.764160674E0
4.952633540E-1,1.550245583E-1,1.478419602E-1,9.752182007E0,9.754534523E0
4.977837190E-1,1.646013707E-1,1.478419602E-1,9.761758804E0,9.764265759E0
5.003040830E-1,1.693897694E-1,1.430535465E-1,9.761758804E0,9.764276326E0
5.028244480E-1,1.741781682E-1,1.238999367E-1,9.752182007E0,9.754524239E0
5.053448120E-1,1.646013707E-1,1.382651478E-1,9.771335602E0,9.773699929E0
5.078651770E-1,1.646013707E-1,1.382651478E-1,9.761758804E0,9.764125451E0
5.103855940E-1,1.646013707E-1,1.334767491E-1,9.780912399E0,9.783207910E0
5.129060100E-1,1.550245583E-1,1.334767491E-1,9.780912399E0,9.783051468E0
5.154264790E-1,1.454477459E-1,1.430535465E-1,9.795277596E0,9.797401826E0
5.179470000E-1,1.550245583E-1,1.478419602E-1,9.800065994E0,9.802407018E0
5.204675730E-1,1.550245583E-1,1.526303589E-1,9.790489197E0,9.792905971E0
5.229882500E-1,1.550245583E-1,1.622071713E-1,9.804854393E0,9.807421345E0
5.255090310E-1,1.598129570E-1,1.526303589E-1,9.819219589E0,9.821706041E0
5.280299160E-1,1.598129570E-1,1.478419602E-1,9.824007988E0,9.826420018E0
5.305509060E-1,1.550245583E-1,1.526303589E-1,9.814431190E0,9.816842070E0
5.330720000E-1,1.406593472E-1,1.574187577E-1,9.809642792E0,9.811914055E0
5.355931980E-1,1.598129570E-1,1.622071713E-1,9.814431190E0,9.817072422E0
5.381145000E-1,1.502361596E-1,1.574187577E-1,9.824007988E0,9.826417685E0
5.406359060E-1,1.454477459E-1,1.669955701E-1,9.819219589E0,9.821716546E0
5.431573640E-1,1.646013707E-1,1.717839688E-1,9.809642792E0,9.812527454E0
5.456788750E-1,1.502361596E-1,1.669955701E-1,9.814431190E0,9.817001478E0
5.482003850E-1,1.646013707E-1,1.574187577E-1,9.804854393E0,9.807499373E0
5.507218960E-1,1.646013707E-1,1.622071713E-1,9.800065994E0,9.802790331E0
5.532434060E-1,1.598129570E-1,1.669955701E-1,9.790489197E0,9.793217368E0
5.557647080E-1,1.550245583E-1,1.717839688E-1,9.790489197E0,9.793223221E0
5.582854890E-1,1.550245583E-1,1.717839688E-1,9.795277596E0,9.798010284E0
5.608062710E-1,1.550245583E-1,1.765723825E-1,9.809642792E0,9.812456477E0
5.633270520E-1,1.693897694E-1,1.622071713E-1,9.814431190E0,9.817232994E0
5.658478330E-1,1.741781682E-1,1.526303589E-1,9.795277596E0,9.798014964E0
5.683686140E-1,1.933317930E-1,1.622071713E-1,9.790489197E0,9.793741219E0
5.708893960E-1,1.789665818E-1,1.526303589E-1,9.785700798E0,9.788527222E0
5.734101770E-1,1.741781682E-1,1.574187577E-1,9.785700798E0,9.788516681E0
5.759309580E-1,1.741781682E-1,1.669955701E-1,9.780912399E0,9.783888435E0
5.784517910E-1,1.885433793E-1,1.526303589E-1,9.785700798E0,9.788707000E0
5.809726770E-1,1.789665818E-1,1.574187577E-1,9.771335602E0,9.774242126E0
5.834936140E-1,1.933317930E-1,1.717839688E-1,9.771335602E0,9.774757611E0
5.860146040E-1,1.885433793E-1,1.717839688E-1,9.766547203E0,9.769877308E0
5.885356460E-1,1.789665818E-1,1.717839688E-1,9.752182007E0,9.755336625E0
5.910567390E-1,1.741781682E-1,1.813607812E-1,9.766547203E0,9.769783725E0
5.935778850E-1,1.837549806E-1,1.765723825E-1,9.785700798E0,9.789018531E0
5.960990830E-1,1.885433793E-1,1.669955701E-1,9.776124001E0,9.779367904E0
5.986203330E-1,1.693897694E-1,1.574187577E-1,9.780912399E0,9.783645584E0
6.011416350E-1,1.741781682E-1,1.526303589E-1,9.785700798E0,9.788440845E0
6.036629890E-1,1.837549806E-1,1.430535465E-1,9.776124001E0,9.778897212E0
6.061843440E-1,1.693897694E-1,1.478419602E-1,9.785700798E0,9.788283315E0
6.087056980E-1,1.646013707E-1,1.622071713E-1,9.780912399E0,9.783642069E0
6.112265310E-1,1.885433793E-1,1.669955701E-1,9.795277596E0,9.798515158E0
6.137473640E-1,1.837549806E-1,1.526303589E-1,9.795277596E0,9.798189889E0
6.162681980E-1,1.789665818E-1,1.478419602E-1,9.800065994E0,9.802814890E0
6.187890310E-1,1.598129570E-1,1.430535465E-1,9.804854393E0,9.807200119E0
6.213098640E-1,1.598129570E-1,1.430535465E-1,9.800065994E0,9.802412866E0
6.238306980E-1,1.502361596E-1,1.478419602E-1,9.809642792E0,9.811907045E0
6.263515310E-1,1.598129570E-1,1.334767491E-1,9.809642792E0,9.811852421E0
6.288723640E-1,1.598129570E-1,1.526303589E-1,9.795277596E0,9.797770123E0
6.313931980E-1,1.598129570E-1,1.526303589E-1,9.800065994E0,9.802557304E0
6.339140310E-1,1.741781682E-1,1.478419602E-1,9.804854393E0,9.807515738E0
6.364348640E-1,1.646013707E-1,1.382651478E-1,9.819219589E0,9.821572390E0
6.389556980E-1,1.693897694E-1,1.430535465E-1,9.814431190E0,9.816935204E0
6.414765310E-1,1.741781682E-1,1.430535465E-1,9.819219589E0,9.821806132E0
6.439973640E-1,1.693897694E-1,1.478419602E-1,9.809642792E0,9.812219007E0
6.465181980E-1,1.741781682E-1,1.526303589E-1,9.828796387E0,9.831524423E0
6.490390830E-1,1.598129570E-1,1.622071713E-1,9.828796387E0,9.831433759E0
6.515599690E-1,1.550245583E-1,1.478419602E-1,9.804854393E0,9.807194274E0
6.540808540E-1,1.741781682E-1,1.574187577E-1,9.795277596E0,9.798090726E0
6.566017390E-1,1.502361596E-1,1.622071713E-1,9.776124001E0,9.778623755E0
6.591226250E-1,1.454477459E-1,1.478419602E-1,9.795277596E0,9.797472912E0
6.616435100E-1,1.646013707E-1,1.382651478E-1,9.780912399E0,9.783274412E0
6.641643960E-1,1.598129570E-1,1.574187577E-1,9.785700798E0,9.788271602E0
6.666852810E-1,1.454477459E-1,1.430535465E-1,9.780912399E0,9.783039749E0
6.692061660E-1,1.550245583E-1,1.478419602E-1,9.785700798E0,9.788045258E0
6.717269480E-1,1.646013707E-1,1.526303589E-1,9.790489197E0,9.793062256E0
6.742475210E-1,1.646013707E-1,1.669955701E-1,9.785700798E0,9.788509654E0
6.767680940E-1,1.598129570E-1,1.430535465E-1,9.795277596E0,9.797625614E0
6.792886660E-1,1.741781682E-1,1.430535465E-1,9.785700798E0,9.788296198E0
6.818092390E-1,1.741781682E-1,1.478419602E-1,9.766547203E0,9.769218984E0
6.843298640E-1,1.646013707E-1,1.334767491E-1,9.761758804E0,9.764058818E0
6.868505410E-1,1.598129570E-1,1.478419602E-1,9.790489197E0,9.792909483E0
6.893712710E-1,1.646013707E-1,1.478419602E-1,9.785700798E0,9.788201621E0
6.918920520E-1,1.837549806E-1,1.478419602E-1,9.766547203E0,9.769394424E0
6.944128850E-1,1.741781682E-1,1.526303589E-1,9.766547203E0,9.769292622E0
6.969338230E-1,1.741781682E-1,1.717839688E-1,9.776124001E0,9.779184436E0
6.994548640E-1,1.598129570E-1,1.622071713E-1,9.795277596E0,9.797923990E0
7.019759580E-1,1.789665818E-1,1.574187577E-1,9.785700798E0,9.788603057E0
7.044971040E-1,1.837549806E-1,1.526303589E-1,9.780912399E0,9.783828968E0
7.070182500E-1,1.741781682E-1,1.717839688E-1,9.776124001E0,9.779184436E0
7.095393960E-1,1.741781682E-1,1.717839688E-1,9.780912399E0,9.783971337E0
7.120605410E-1,1.693897694E-1,1.765723825E-1,9.790489197E0,9.793546314E0
7.145816870E-1,1.741781682E-1,1.622071713E-1,9.790489197E0,9.793381842E0
7.171028330E-1,1.646013707E-1,1.574187577E-1,9.804854393E0,9.807499373E0
7.196239790E-1,1.693897694E-1,1.622071713E-1,9.795277596E0,9.798084876E0
7.221450730E-1,1.789665818E-1,1.669955701E-1,9.785700798E0,9.788761753E0
7.246660620E-1,1.837549806E-1,1.574187577E-1,9.804854393E0,9.807839529E0
7.271870520E-1,1.646013707E-1,1.478419602E-1,9.790489197E0,9.792988797E0
7.297079890E-1,1.741781682E-1,1.478419602E-1,9.804854393E0,9.807515738E0
7.322287190E-1,1.837549806E-1,1.669955701E-1,9.800065994E0,9.803211051E0
7.347494480E-1,1.741781682E-1,1.526303589E-1,9.804854393E0,9.807589088E0
7.372701770E-1,1.598129570E-1,1.717839688E-1,9.795277596E0,9.798087216E0
7.397909060E-1,1.837549806E-1,1.574187577E-1,9.800065994E0,9.803052588E0
7.423116350E-1,1.646013707E-1,1.430535465E-1,9.795277596E0,9.797704889E0
7.448323640E-1,1.646013707E-1,1.430535465E-1,9.790489197E0,9.792917678E0
7.473530940E-1,1.550245583E-1,1.430535465E-1,9.795277596E0,9.797548678E0
7.498738750E-1,1.693897694E-1,1.286883354E-1,9.809642792E0,9.811949107E0
7.523947080E-1,1.789665818E-1,1.382651478E-1,9.800065994E0,9.802675134E0
7.549155940E-1,1.646013707E-1,1.526303589E-1,9.785700798E0,9.788275116E0
7.574365830E-1,1.598129570E-1,1.382651478E-1,9.776124001E0,9.778407739E0
7.599576770E-1,1.693897694E-1,1.286883354E-1,9.809642792E0,9.811949107E0
7.624788230E-1,1.646013707E-1,1.286883354E-1,9.800065994E0,9.802292986E0
7.650000210E-1,1.646013707E-1,1.334767491E-1,9.780912399E0,9.783207910E0
7.675212710E-1,1.741781682E-1,1.191115379E-1,9.780912399E0,9.783188282E0
7.700425730E-1,1.598129570E-1,1.238999367E-1,9.785700798E0,9.787789918E0
7.725639270E-1,1.550245583E-1,1.095347255E-1,9.766547203E0,9.768391615E0
7.750853330E-1,1.550245583E-1,1.095347255E-1,9.780912399E0,9.782754103E0
7.776067910E-1,1.646013707E-1,1.238999367E-1,9.771335602E0,9.773507264E0
7.801282500E-1,1.646013707E-1,1.238999367E-1,9.785700798E0,9.787869273E0
7.826497080E-1,1.550245583E-1,1.382651478E-1,9.800065994E0,9.802267256E0
7.851711660E-1,1.646013707E-1,1.334767491E-1,9.804854393E0,9.807144300E0
7.876926250E-1,1.550245583E-1,1.191115379E-1,9.776124001E0,9.778078576E0
7.902140830E-1,1.598129570E-1,1.047463268E-1,9.771335602E0,9.773203744E0
7.927352810E-1,1.598129570E-1,1.238999367E-1,9.776124001E0,9.778215167E0
7.952560100E-1,1.693897694E-1,1.238999367E-1,9.790489197E0,9.792738269E0
7.977767390E-1,1.693897694E-1,1.143231317E-1,9.790489197E0,9.792621783E0
8.002974690E-1,1.502361596E-1,1.047463268E-1,9.785700798E0,9.787414511E0
8.028181980E-1,1.646013707E-1,1.238999367E-1,9.771335602E0,9.773507264E0
8.053389790E-1,1.646013707E-1,1.430535465E-1,9.780912399E0,9.783343257E0
8.078598120E-1,1.598129570E-1,1.430535465E-1,9.785700798E0,9.788051114E0
8.103806980E-1,1.741781682E-1,1.238999367E-1,9.795277596E0,9.797609525E0
8.129016350E-1,1.741781682E-1,1.286883354E-1,9.804854393E0,9.807245709E0
8.154226250E-1,1.646013707E-1,1.382651478E-1,9.790489197E0,9.792848900E0
8.179436140E-1,1.837549806E-1,1.286883354E-1,9.790489197E0,9.793059037E0
8.204646040E-1,1.837549806E-1,1.238999367E-1,9.804854393E0,9.807358806E0
8.229855940E-1,1.837549806E-1,1.286883354E-1,9.804854393E0,9.807420469E0
8.255066350E-1,1.933317930E-1,1.143231317E-1,9.800065994E0,9.802639464E0
8.280276770E-1,1.741781682E-1,1.334767491E-1,9.809642792E0,9.812096910E0
8.305487710E-1,1.693897694E-1,1.382651478E-1,9.814431190E0,9.816866595E0
8.330699160E-1,1.837549806E-1,1.334767491E-1,9.814431190E0,9.817058700E0
8.355911140E-1,1.693897694E-1,1.382651478E-1,9.800065994E0,9.802504967E0
8.381123120E-1,1.598129570E-1,1.382651478E-1,9.804854393E0,9.807131441E0
8.406335100E-1,1.646013707E-1,1.430535465E-1,9.819219589E0,9.821640966E0
8.431547080E-1,1.789665818E-1,1.430535465E-1,9.804854393E0,9.807530934E0
8.456759060E-1,1.789665818E-1,1.526303589E-1,9.804854393E0,9.807675297E0
8.481970000E-1,1.837549806E-1,1.478419602E-1,9.804854393E0,9.807690493E0
8.507179890E-1,1.789665818E-1,1.430535465E-1,9.800065994E0,9.802743843E0
8.532389790E-1,1.789665818E-1,1.478419602E-1,9.785700798E0,9.788453728E0
8.557599690E-1,1.693897694E-1,1.574187577E-1,9.776124001E0,9.778858524E0
8.582809580E-1,1.933317930E-1,1.382651478E-1,9.790489197E0,9.793373941E0
8.608019480E-1,1.693897694E-1,1.382651478E-1,9.776124001E0,9.778568945E0
8.633229370E-1,1.598129570E-1,1.526303589E-1,9.780912399E0,9.783408586E0
8.658439270E-1,1.693897694E-1,1.574187577E-1,9.785700798E0,9.788432646E0
8.683649160E-1,1.598129570E-1,1.574187577E-1,9.785700798E0,9.788271602E0
8.708859060E-1,1.502361596E-1,1.526303589E-1,9.776124001E0,9.778469584E0
8.734068960E-1,1.598129570E-1,1.478419602E-1,9.766547203E0,9.768973421E0
8.759278850E-1,1.789665818E-1,1.526303589E-1,9.766547203E0,9.769379168E0
8.784488750E-1,1.741781682E-1,1.478419602E-1,9.776124001E0,9.778793164E0
8.809698640E-1,1.646013707E-1,1.526303589E-1,9.795277596E0,9.797849397E0
8.834908540E-1,1.598129570E-1,1.526303589E-1,9.790489197E0,9.792982943E0
8.860118440E-1,1.646013707E-1,1.382651478E-1,9.776124001E0,9.778487170E0
8.885328330E-1,1.646013707E-1,1.574187577E-1,9.795277596E0,9.797925160E0
8.910538750E-1,1.789665818E-1,1.526303589E-1,9.776124001E0,9.778953192E0
8.935749690E-1,1.693897694E-1,1.526303589E-1,9.780912399E0,9.783569711E0
8.960961140E-1,1.550245583E-1,1.526303589E-1,9.785700798E0,9.788118754E0
8.986173120E-1,1.598129570E-1,1.526303589E-1,9.780912399E0,9.783408586E0
9.011385620E-1,1.693897694E-1,1.669955701E-1,9.780912399E0,9.783804361E0
9.036598640E-1,1.693897694E-1,1.574187577E-1,9.780912399E0,9.783645584E0
9.061812190E-1,1.741781682E-1,1.669955701E-1,9.795277596E0,9.798249269E0
9.087025730E-1,1.550245583E-1,1.622071713E-1,9.795277596E0,9.797847057E0
9.112239270E-1,1.646013707E-1,1.574187577E-1,9.795277596E0,9.797925160E0
9.137452810E-1,1.693897694E-1,1.478419602E-1,9.785700798E0,9.788283315E0
9.162665310E-1,1.502361596E-1,1.430535465E-1,9.780912399E0,9.783112111E0
9.187877810E-1,1.598129570E-1,1.526303589E-1,9.800065994E0,9.802557304E0
9.213087710E-1,1.550245583E-1,1.669955701E-1,9.804854393E0,9.807501711E0
9.238295520E-1,1.550245583E-1,1.526303589E-1,9.804854393E0,9.807267627E0
9.263503330E-1,1.693897694E-1,1.334767491E-1,9.800065994E0,9.802438596E0
9.288711140E-1,1.837549806E-1,1.382651478E-1,9.809642792E0,9.812337889E0
9.313918960E-1,1.693897694E-1,1.478419602E-1,9.804854393E0,9.807431866E0
9.339126770E-1,1.646013707E-1,1.478419602E-1,9.814431190E0,9.816924694E0
9.364334580E-1,1.693897694E-1,1.478419602E-1,9.795277596E0,9.797857588E0
9.389542390E-1,1.741781682E-1,1.574187577E-1,9.790489197E0,9.793303703E0
9.414750210E-1,1.741781682E-1,1.526303589E-1,9.804854393E0,9.807589088E0
9.439958020E-1,1.646013707E-1,1.526303589E-1,9.800065994E0,9.802636540E0
9.465166350E-1,1.741781682E-1,1.382651478E-1,9.800065994E0,9.802588881E0
9.490375210E-1,1.598129570E-1,1.478419602E-1,9.776124001E0,9.778547842E0
9.515584580E-1,1.550245583E-1,1.430535465E-1,9.795277596E0,9.797548678E0
9.540794480E-1,1.693897694E-1,1.238999367E-1,9.800065994E0,9.802312869E0
9.566004890E-1,1.789665818E-1,1.286883354E-1,9.804854393E0,9.807331920E0
9.591215830E-1,1.789665818E-1,1.430535465E-1,9.800065994E0,9.802743843E0
9.616427290E-1,1.693897694E-1,1.574187577E-1,9.819219589E0,9.821942115E0
9.641639270E-1,1.741781682E-1,1.430535465E-1,9.804854393E0,9.807444724E0
9.666851770E-1,1.693897694E-1,1.430535465E-1,9.800065994E0,9.802573678E0
9.692064790E-1,1.837549806E-1,1.574187577E-1,9.795277596E0,9.798265649E0
9.717277810E-1,1.646013707E-1,1.478419602E-1,9.809642792E0,9.812137512E0
9.742490830E-1,1.550245583E-1,1.430535465E-1,9.795277596E0,9.797548678E0
9.767703850E-1,1.646013707E-1,1.622071713E-1,9.785700798E0,9.788429133E0
9.792916870E-1,1.646013707E-1,1.574187577E-1,9.780912399E0,9.783563852E0
9.818129370E-1,1.550245583E-1,1.478419602E-1,9.776124001E0,9.778470756E0
9.843339790E-1,1.693897694E-1,1.622071713E-1,9.790489197E0,9.793297850E0
9.868550210E-1,1.646013707E-1,1.574187577E-1,9.800065994E0,9.802712266E0
9.893760620E-1,1.598129570E-1,1.526303589E-1,9.804854393E0,9.807344486E0
9.918971040E-1,1.550245583E-1,1.430535465E-1,9.804854393E0,9.807123258E0
9.944181460E-1,1.502361596E-1,1.574187577E-1,9.795277596E0,9.797694358E0
9.969391870E-1,1.550245583E-1,1.622071713E-1,9.785700798E0,9.788272774E0
9.994602290E-1,1.598129570E-1,1.669955701E-1,9.785700798E0,9.788430304E0
1.001981271E0,1.646013707E-1,1.717839688E-1,9.790489197E0,9.793379501E0
1.004502364E0,1.741781682E-1,1.526303589E-1,9.785700798E0,9.788440845E0
1.007023510E0,1.646013707E-1,1.526303589E-1,9.785700798E0,9.788275116E0
1.009544708E0,1.646013707E-1,1.574187577E-1,9.785700798E0,9.788350953E0
1.012065958E0,1.789665818E-1,1.526303589E-1,9.800065994E0,9.802888276E0
1.014587260E0,1.741781682E-1,1.669955701E-1,9.804854393E0,9.807823164E0
1.017108614E0,1.933317930E-1,1.765723825E-1,9.804854393E0,9.808349742E0
1.019629969E0,1.646013707E-1,1.717839688E-1,9.795277596E0,9.798166487E0
1.022151323E0,1.406593472E-1,1.669955701E-1,9.804854393E0,9.807285162E0
1.024673041E0,1.502361596E-1,1.765723825E-1,9.809642792E0,9.812381995E0
1.027194760E0,1.646013707E-1,1.526303589E-1,9.790489197E0,9.793062256E0
1.029715073E0,1.741781682E-1,1.382651478E-1,9.790489197E0,9.793014551E0
1.032235385E0,1.789665818E-1,1.526303589E-1,9.790489197E0,9.793314239E0
1.034755698E0,1.741781682E-1,1.526303589E-1,9.780912399E0,9.783653787E0
1.037276114E0,1.933317930E-1,1.669955701E-1,9.785700798E0,9.789034927E0
1.039796687E0,1.741781682E-1,1.574187577E-1,9.804854393E0,9.807664776E0
1.042317416E0,1.598129570E-1,1.574187577E-1,9.790489197E0,9.793058744E0
1.044838302E0,1.598129570E-1,1.574187577E-1,9.790489197E0,9.793058744E0
1.047359344E0,1.646013707E-1,1.622071713E-1,9.790489197E0,9.793216197E0
1.049880541E0,1.646013707E-1,1.717839688E-1,9.790489197E0,9.793379501E0
1.052401896E0,1.646013707E-1,1.574187577E-1,9.790489197E0,9.793138056E0
1.054923406E0,1.646013707E-1,1.622071713E-1,9.790489197E0,9.793216197E0
1.057445021E0,1.646013707E-1,1.430535465E-1,9.790489197E0,9.792917678E0
1.059966739E0,1.741781682E-1,1.574187577E-1,9.771335602E0,9.774155623E0
1.062488510E0,1.741781682E-1,1.669955701E-1,9.776124001E0,9.779101494E0
1.065010333E0,1.741781682E-1,1.622071713E-1,9.785700798E0,9.788594859E0
1.067532156E0,1.789665818E-1,1.574187577E-1,9.785700798E0,9.788603057E0
1.070053823E0,1.646013707E-1,1.574187577E-1,9.790489197E0,9.793138056E0
1.072574604E0,1.598129570E-1,1.478419602E-1,9.795277596E0,9.797696699E0
1.075095385E0,1.598129570E-1,1.382651478E-1,9.804854393E0,9.807131441E0
1.077616166E0,1.693897694E-1,1.430535465E-1,9.776124001E0,9.778637824E0
1.080136948E0,1.646013707E-1,1.574187577E-1,9.785700798E0,9.788350953E0
1.082657729E0,1.789665818E-1,1.478419602E-1,9.780912399E0,9.783666677E0
1.085178510E0,1.693897694E-1,1.478419602E-1,9.776124001E0,9.778709046E0
1.087699344E0,1.789665818E-1,1.286883354E-1,9.771335602E0,9.773821626E0
1.090220229E0,1.646013707E-1,1.334767491E-1,9.780912399E0,9.783207910E0
1.092741219E0,1.789665818E-1,1.478419602E-1,9.785700798E0,9.788453728E0
1.095262312E0,1.837549806E-1,1.478419602E-1,9.785700798E0,9.788542448E0
1.097783510E0,1.837549806E-1,1.430535465E-1,9.800065994E0,9.802832433E0
1.100304812E0,1.933317930E-1,1.382651478E-1,9.785700798E0,9.788586953E0
1.102826219E0,1.789665818E-1,1.382651478E-1,9.785700798E0,9.788313767E0
1.105347677E0,1.885433793E-1,1.334767491E-1,9.790489197E0,9.793214149E0
1.107869187E0,1.741781682E-1,1.430535465E-1,9.790489197E0,9.793083328E0
1.110390750E0,1.741781682E-1,1.430535465E-1,9.800065994E0,9.802657591E0
1.112912312E0,1.693897694E-1,1.382651478E-1,9.795277596E0,9.797717761E0
1.115433875E0,1.598129570E-1,1.382651478E-1,9.790489197E0,9.792769585E0
1.117955333E0,1.837549806E-1,1.382651478E-1,9.804854393E0,9.807550806E0
1.120476427E0,1.693897694E-1,1.382651478E-1,9.795277596E0,9.797717761E0
1.122997521E0,1.693897694E-1,1.430535465E-1,9.804854393E0,9.807360852E0
1.125518614E0,1.837549806E-1,1.286883354E-1,9.795277596E0,9.797846179E0
1.128039708E0,1.789665818E-1,1.334767491E-1,9.790489197E0,9.793034453E0
1.130560698E0,1.789665818E-1,1.382651478E-1,9.795277596E0,9.797888010E0
1.133081687E0,1.693897694E-1,1.238999367E-1,9.804854393E0,9.807100171E0
1.135602677E0,1.789665818E-1,1.382651478E-1,9.804854393E0,9.807462259E0
1.138123666E0,1.598129570E-1,1.478419602E-1,9.814431190E0,9.816845574E0
1.140644656E0,1.741781682E-1,1.191115379E-1,9.809642792E0,9.811912010E0
1.143165646E0,1.502361596E-1,1.143231317E-1,9.809642792E0,9.811459238E0
1.145686635E0,1.598129570E-1,1.238999367E-1,9.795277596E0,9.797364674E0
1.148207677E0,1.693897694E-1,1.286883354E-1,9.795277596E0,9.797587293E0
1.150728771E0,1.646013707E-1,1.238999367E-1,9.785700798E0,9.787869273E0
1.153249916E0,1.550245583E-1,1.286883354E-1,9.780912399E0,9.782987308E0
1.155771166E0,1.646013707E-1,1.382651478E-1,9.771335602E0,9.773699929E0
1.158292521E0,1.646013707E-1,1.191115379E-1,9.785700798E0,9.787809831E0
1.160813979E0,1.646013707E-1,1.191115379E-1,9.785700798E0,9.787809831E0
1.163335489E0,1.693897694E-1,1.238999367E-1,9.790489197E0,9.792738269E0
1.165857052E0,1.646013707E-1,1.334767491E-1,9.795277596E0,9.797569741E0
1.168378614E0,1.598129570E-1,1.334767491E-1,9.790489197E0,9.792703148E0
1.170900177E0,1.646013707E-1,1.334767491E-1,9.795277596E0,9.797569741E0
1.173421219E0,1.933317930E-1,1.382651478E-1,9.780912399E0,9.783799967E0
1.175942208E0,1.789665818E-1,1.430535465E-1,9.785700798E0,9.788382576E0
1.178463198E0,1.741781682E-1,1.478419602E-1,9.780912399E0,9.783580257E0
1.180984031E0,1.693897694E-1,1.526303589E-1,9.771335602E0,9.773995517E0
1.183504812E0,1.646013707E-1,1.574187577E-1,9.776124001E0,9.778776751E0
1.186025594E0,1.885433793E-1,1.430535465E-1,9.795277596E0,9.798136358E0
1.188546375E0,1.693897694E-1,1.334767491E-1,9.800065994E0,9.802438596E0
1.191067156E0,1.598129570E-1,1.334767491E-1,9.809642792E0,9.811852421E0
1.193587989E0,1.789665818E-1,1.430535465E-1,9.800065994E0,9.802743843E0
1.196108875E0,1.837549806E-1,1.526303589E-1,9.785700798E0,9.788615940E0
1.198629812E0,1.789665818E-1,1.478419602E-1,9.814431190E0,9.817176064E0
1.201150750E0,1.741781682E-1,1.478419602E-1,9.785700798E0,9.788367350E0
1.203671687E0,1.789665818E-1,1.478419602E-1,9.776124001E0,9.778879627E0
1.206192625E0,1.837549806E-1,1.478419602E-1,9.780912399E0,9.783755440E0
1.208713562E0,1.741781682E-1,1.526303589E-1,9.780912399E0,9.783653787E0
1.211234500E0,1.789665818E-1,1.478419602E-1,9.795277596E0,9.798027835E0
1.213755437E0,1.789665818E-1,1.382651478E-1,9.790489197E0,9.793100888E0
1.216276375E0,1.598129570E-1,1.478419602E-1,9.800065994E0,9.802483916E0
1.218797052E0,1.598129570E-1,1.334767491E-1,9.800065994E0,9.802277782E0
1.221317729E0,1.693897694E-1,1.430535465E-1,9.790489197E0,9.792999332E0
1.223838406E0,1.502361596E-1,1.334767491E-1,9.785700798E0,9.787764150E0
1.226359083E0,1.789665818E-1,1.430535465E-1,9.785700798E0,9.788382576E0
1.228879760E0,1.693897694E-1,1.478419602E-1,9.795277596E0,9.797857588E0
1.231400437E0,1.789665818E-1,1.430535465E-1,9.809642792E0,9.812318027E0
1.233921114E0,1.789665818E-1,1.430535465E-1,9.795277596E0,9.797956753E0
1.236441844E0,1.598129570E-1,1.430535465E-1,9.800065994E0,9.802412866E0
1.238962625E0,1.502361596E-1,1.526303589E-1,9.814431190E0,9.816767621E0
1.241483458E0,1.550245583E-1,1.478419602E-1,9.790489197E0,9.792832510E0
1.244004344E0,1.598129570E-1,1.526303589E-1,9.790489197E0,9.792982943E0
1.246525281E0,1.693897694E-1,1.526303589E-1,9.780912399E0,9.783569711E0
1.249046323E0,1.693897694E-1,1.430535465E-1,9.785700798E0,9.788212162E0
1.251567469E0,1.693897694E-1,1.430535465E-1,9.804854393E0,9.807360852E0
1.254088666E0,1.741781682E-1,1.430535465E-1,9.800065994E0,9.802657591E0
1.256609916E0,1.646013707E-1,1.478419602E-1,9.780912399E0,9.783414446E0
1.259131219E0,1.693897694E-1,1.430535465E-1,9.780912399E0,9.783424992E0
1.261652573E0,1.598129570E-1,1.382651478E-1,9.776124001E0,9.778407739E0
1.264173927E0,1.693897694E-1,1.430535465E-1,9.785700798E0,9.788212162E0
1.266695333E0,1.789665818E-1,1.478419602E-1,9.790489197E0,9.793240781E0
1.269216791E0,1.646013707E-1,1.526303589E-1,9.790489197E0,9.793062256E0
1.271738250E0,1.693897694E-1,1.478419602E-1,9.800065994E0,9.802644726E0
1.274259708E0,1.646013707E-1,1.334767491E-1,9.795277596E0,9.797569741E0
1.276781219E0,1.693897694E-1,1.382651478E-1,9.790489197E0,9.792930555E0
1.279302729E0,1.646013707E-1,1.478419602E-1,9.776124001E0,9.778627272E0
1.281824239E0,1.693897694E-1,1.382651478E-1,9.800065994E0,9.802504967E0
1.284345489E0,1.693897694E-1,1.334767491E-1,9.790489197E0,9.792864119E0
1.286866531E0,1.646013707E-1,1.238999367E-1,9.800065994E0,9.802231292E0
1.289387573E0,1.693897694E-1,1.334767491E-1,9.814431190E0,9.816800320E0
1.291908614E0,1.693897694E-1,1.334767491E-1,9.785700798E0,9.788076882E0
1.294429656E0,1.550245583E-1,1.286883354E-1,9.790489197E0,9.792562076E0
1.296950698E0,1.502361596E-1,1.334767491E-1,9.795277596E0,9.797338931E0
1.299471739E0,1.741781682E-1,1.574187577E-1,9.800065994E0,9.802877751E0
1.301992781E0,1.406593472E-1,1.382651478E-1,9.809642792E0,9.811625452E0
1.304513823E0,1.550245583E-1,1.430535465E-1,9.785700798E0,9.787974103E0
1.307034864E0,1.646013707E-1,1.430535465E-1,9.790489197E0,9.792917678E0
1.309555698E0,1.741781682E-1,1.478419602E-1,9.785700798E0,9.788367350E0
1.312076271E0,1.837549806E-1,1.478419602E-1,9.780912399E0,9.783755440E0
1.314596844E0,1.837549806E-1,1.526303589E-1,9.780912399E0,9.783828968E0
1.317117416E0,1.646013707E-1,1.430535465E-1,9.790489197E0,9.792917678E0
1.319637989E0,1.598129570E-1,1.622071713E-1,9.795277596E0,9.797923990E0
1.322158562E0,1.693897694E-1,1.574187577E-1,9.800065994E0,9.802793839E0
1.324679135E0,1.646013707E-1,1.334767491E-1,9.804854393E0,9.807144300E0
1.327199760E0,1.550245583E-1,1.526303589E-1,9.804854393E0,9.807267627E0
1.329720437E0,1.646013707E-1,1.430535465E-1,9.804854393E0,9.807279317E0
1.332241166E0,1.646013707E-1,1.430535465E-1,9.804854393E0,9.807279317E0
1.334761948E0,1.789665818E-1,1.430535465E-1,9.785700798E0,9.788382576E0
1.337282781E0,1.789665818E-1,1.526303589E-1,9.776124001E0,9.778953192E0
1.339803719E0,1.741781682E-1,1.574187577E-1,9.785700798E0,9.788516681E0
1.342324708E0,1.789665818E-1,1.669955701E-1,9.800065994E0,9.803122464E0
1.344845750E0,1.789665818E-1,1.526303589E-1,9.809642792E0,9.812462319E0
1.347366791E0,1.598129570E-1,1.669955701E-1,9.795277596E0,9.798004433E0
1.349887833E0,1.598129570E-1,1.526303589E-1,9.785700798E0,9.788195764E0
1.352408302E0,1.646013707E-1,1.574187577E-1,9.790489197E0,9.793138056E0
1.354928406E0,1.741781682E-1,1.813607812E-1,9.795277596E0,9.798504628E0
1.357448510E0,1.646013707E-1,1.717839688E-1,9.785700798E0,9.788592516E0
1.359968614E0,1.454477459E-1,1.574187577E-1,9.776124001E0,9.778473101E0
1.362488771E0,1.358709484E-1,1.574187577E-1,9.771335602E0,9.773548026E0
1.365008979E0,1.502361596E-1,1.765723825E-1,9.771335602E0,9.774085541E0
1.367529239E0,1.646013707E-1,1.622071713E-1,9.790489197E0,9.793216197E0
1.370049604E0,1.837549806E-1,1.526303589E-1,9.771335602E0,9.774255029E0
1.372570073E0,1.837549806E-1,1.622071713E-1,9.776124001E0,9.779196160E0
1.375090698E0,1.693897694E-1,1.669955701E-1,9.776124001E0,9.779017378E0
1.377611479E0,1.550245583E-1,1.574187577E-1,9.780912399E0,9.783407415E0
1.380132416E0,1.502361596E-1,1.622071713E-1,9.790489197E0,9.792985284E0
1.382653510E0,1.598129570E-1,1.574187577E-1,9.790489197E0,9.793058744E0
1.385174760E0,1.550245583E-1,1.669955701E-1,9.785700798E0,9.788353296E0
1.387696114E0,1.598129570E-1,1.574187577E-1,9.780912399E0,9.783484462E0
1.390217573E0,1.550245583E-1,1.526303589E-1,9.785700798E0,9.788118754E0
1.392739083E0,1.550245583E-1,1.526303589E-1,9.780912399E0,9.783331539E0
1.395260646E0,1.693897694E-1,1.574187577E-1,9.790489197E0,9.793219709E0
1.397782208E0,1.646013707E-1,1.526303589E-1,9.785700798E0,9.788275116E0
1.400303771E0,1.598129570E-1,1.622071713E-1,9.785700798E0,9.788349782E0
1.402824604E0,1.598129570E-1,1.669955701E-1,9.795277596E0,9.798004433E0
1.405345437E0,1.693897694E-1,1.574187577E-1,9.790489197E0,9.793219709E0
1.407866166E0,1.598129570E-1,1.622071713E-1,9.785700798E0,9.788349782E0
1.410386791E0,1.693897694E-1,1.622071713E-1,9.795277596E0,9.798084876E0
1.412907416E0,1.837549806E-1,1.334767491E-1,9.785700798E0,9.788336020E0
1.415428041E0,1.837549806E-1,1.382651478E-1,9.771335602E0,9.774041262E0
1.417948719E0,1.646013707E-1,1.478419602E-1,9.795277596E0,9.797775974E0
1.420469448E0,1.646013707E-1,1.334767491E-1,9.785700798E0,9.787995186E0
1.422990229E0,1.693897694E-1,1.334767491E-1,9.790489197E0,9.792864119E0
1.425511062E0,1.693897694E-1,1.382651478E-1,9.780912399E0,9.783356147E0
1.428031948E0,1.741781682E-1,1.334767491E-1,9.785700798E0,9.788160919E0
1.430552885E0,1.693897694E-1,1.382651478E-1,9.780912399E0,9.783356147E0
1.433073875E0,1.646013707E-1,1.382651478E-1,9.800065994E0,9.802423392E0
1.435594916E0,1.646013707E-1,1.430535465E-1,9.795277596E0,9.797704889E0
1.438116010E0,1.885433793E-1,1.382651478E-1,9.795277596E0,9.798067617E0
1.440637156E0,1.646013707E-1,1.430535465E-1,9.790489197E0,9.792917678E0
1.443158354E0,1.741781682E-1,1.430535465E-1,9.771335602E0,9.773934816E0
1.445679604E0,1.789665818E-1,1.430535465E-1,9.780912399E0,9.783595490E0
1.448200854E0,1.789665818E-1,1.478419602E-1,9.819219589E0,9.821963125E0
1.450722104E0,1.789665818E-1,1.382651478E-1,9.814431190E0,9.817036512E0
1.453243354E0,1.885433793E-1,1.382651478E-1,9.790489197E0,9.793280583E0
1.455764604E0,1.741781682E-1,1.334767491E-1,9.785700798E0,9.788160919E0
1.458285854E0,1.741781682E-1,1.430535465E-1,9.790489197E0,9.793083328E0
1.460807104E0,1.837549806E-1,1.526303589E-1,9.804854393E0,9.807763842E0
1.463328041E0,1.933317930E-1,1.430535465E-1,9.800065994E0,9.803016627E0
1.465848823E0,1.837549806E-1,1.334767491E-1,9.800065994E0,9.802697355E0
1.468369604E0,1.646013707E-1,1.382651478E-1,9.809642792E0,9.811997889E0
1.470890385E0,1.502361596E-1,1.430535465E-1,9.809642792E0,9.811836063E0
1.473411166E0,1.646013707E-1,1.382651478E-1,9.780912399E0,9.783274412E0
1.475931948E0,1.693897694E-1,1.191115379E-1,9.785700798E0,9.787891528E0
1.478452781E0,1.741781682E-1,1.238999367E-1,9.800065994E0,9.802396784E0
1.480973614E0,1.789665818E-1,1.238999367E-1,9.785700798E0,9.788121390E0
1.483494500E0,1.741781682E-1,1.430535465E-1,9.795277596E0,9.797870459E0
1.486015437E0,1.598129570E-1,1.286883354E-1,9.800065994E0,9.802213748E0
1.488536427E0,1.646013707E-1,1.382651478E-1,9.771335602E0,9.773699929E0
1.491057469E0,1.550245583E-1,1.430535465E-1,9.761758804E0,9.764037683E0
1.493578562E0,1.741781682E-1,1.574187577E-1,9.776124001E0,9.778942641E0
1.496099708E0,1.741781682E-1,1.574187577E-1,9.790489197E0,9.793303703E0
1.498620854E0,1.741781682E-1,1.574187577E-1,9.790489197E0,9.793303703E0
1.501142000E0,1.693897694E-1,1.382651478E-1,9.785700798E0,9.788143351E0
1.503663146E0,1.741781682E-1,1.334767491E-1,9.800065994E0,9.802522510E0
1.506184291E0,1.837549806E-1,1.478419602E-1,9.776124001E0,9.778968433E0
1.508705437E0,1.598129570E-1,1.622071713E-1,9.785700798E0,9.788349782E0
1.511226375E0,1.693897694E-1,1.478419602E-1,9.780912399E0,9.783496180E0
1.513747260E0,1.598129570E-1,1.478419602E-1,9.790489197E0,9.792909483E0
1.516268146E0,1.741781682E-1,1.334767491E-1,9.790489197E0,9.792948115E0
1.518789031E0,1.598129570E-1,1.334767491E-1,9.795277596E0,9.797490464E0
1.521309916E0,1.646013707E-1,1.334767491E-1,9.814431190E0,9.816718864E0
1.523830802E0,1.646013707E-1,1.382651478E-1,9.814431190E0,9.816785138E0
1.526351687E0,1.741781682E-1,1.334767491E-1,9.790489197E0,9.792948115E0
1.528872573E0,1.741781682E-1,1.478419602E-1,9.800065994E0,9.802728639E0
1.531393458E0,1.598129570E-1,1.478419602E-1,9.780912399E0,9.783335055E0
1.533914344E0,1.598129570E-1,1.430535465E-1,9.790489197E0,9.792838363E0
1.536435281E0,1.646013707E-1,1.430535465E-1,9.790489197E0,9.792917678E0
1.538956271E0,1.550245583E-1,1.574187577E-1,9.804854393E0,9.807343317E0
1.541477312E0,1.598129570E-1,1.717839688E-1,9.800065994E0,9.802874242E0
1.543998406E0,1.550245583E-1,1.526303589E-1,9.795277596E0,9.797693188E0
1.546519552E0,1.502361596E-1,1.286883354E-1,9.771335602E0,9.773337763E0
1.549040750E0,1.550245583E-1,1.430535465E-1,9.785700798E0,9.787974103E0
1.551561948E0,1.550245583E-1,1.526303589E-1,9.790489197E0,9.792905971E0
1.554083146E0,1.646013707E-1,1.526303589E-1,9.780912399E0,9.783487977E0
1.556604344E0,1.550245583E-1,1.526303589E-1,9.785700798E0,9.788118754E0
1.559125541E0,1.646013707E-1,1.430535465E-1,9.785700798E0,9.788130467E0
1.561646739E0,1.598129570E-1,1.478419602E-1,9.814431190E0,9.816845574E0
1.564167677E0,1.646013707E-1,1.430535465E-1,9.809642792E0,9.812066532E0
1.566688614E0,1.646013707E-1,1.286883354E-1,9.804854393E0,9.807080298E0
1.569209552E0,1.646013707E-1,1.478419602E-1,9.795277596E0,9.797775974E0
1.571730489E0,1.646013707E-1,1.526303589E-1,9.790489197E0,9.793062256E0
1.574251427E0,1.693897694E-1,1.574187577E-1,9.795277596E0,9.798006773E0
1.576772364E0,1.693897694E-1,1.430535465E-1,9.785700798E0,9.788212162E0
1.579293302E0,1.837549806E-1,1.430535465E-1,9.776124001E0,9.778897212E0
1.581814239E0,1.885433793E-1,1.382651478E-1,9.785700798E0,9.788493549E0
1.584335177E0,1.837549806E-1,1.430535465E-1,9.785700798E0,9.788471296E0
1.586856114E0,1.885433793E-1,1.526303589E-1,9.790489197E0,9.793493929E0
1.589377052E0,1.693897694E-1,1.334767491E-1,9.800065994E0,9.802438596E0
1.591897989E0,1.693897694E-1,1.334767491E-1,9.785700798E0,9.788076882E0
1.594418927E0,1.741781682E-1,1.622071713E-1,9.790489197E0,9.793381842E0
1.596939864E0,1.789665818E-1,1.478419602E-1,9.819219589E0,9.821963125E0
1.599460802E0,1.789665818E-1,1.382651478E-1,9.795277596E0,9.797888010E0
1.601981739E0,1.789665818E-1,1.430535465E-1,9.804854393E0,9.807530934E0
1.604502677E0,1.646013707E-1,1.382651478E-1,9.800065994E0,9.802423392E0
1.607023614E0,1.789665818E-1,1.430535465E-1,9.790489197E0,9.793169664E0
1.609544552E0,1.837549806E-1,1.430535465E-1,9.790489197E0,9.793258340E0
1.612065333E0,1.646013707E-1,1.382651478E-1,9.804854393E0,9.807210640E0
1.614586114E0,1.741781682E-1,1.382651478E-1,9.804854393E0,9.807376048E0
1.617106896E0,1.837549806E-1,1.286883354E-1,9.790489197E0,9.793059037E0
1.619627677E0,1.741781682E-1,1.334767491E-1,9.800065994E0,9.802522510E0
1.622148458E0,1.693897694E-1,1.286883354E-1,9.795277596E0,9.797587293E0
1.624669239E0,1.789665818E-1,1.478419602E-1,9.785700798E0,9.788453728E0
1.627190021E0,1.741781682E-1,1.430535465E-1,9.785700798E0,9.788296198E0
1.629710802E0,1.741781682E-1,1.334767491E-1,9.814431190E0,9.816884112E0
1.632231635E0,1.646013707E-1,1.382651478E-1,9.800065994E0,9.802423392E0
1.634752521E0,1.837549806E-1,1.382651478E-1,9.790489197E0,9.793189565E0
1.637273458E0,1.789665818E-1,1.430535465E-1,9.785700798E0,9.788382576E0
1.639794448E0,1.598129570E-1,1.382651478E-1,9.800065994E0,9.802344155E0
1.642315489E0,1.741781682E-1,1.334767491E-1,9.780912399E0,9.783373725E0
1.644836583E0,1.789665818E-1,1.382651478E-1,9.795277596E0,9.797888010E0
1.647357781E0,1.598129570E-1,1.382651478E-1,9.795277596E0,9.797556869E0
1.649879031E0,1.693897694E-1,1.430535465E-1,9.800065994E0,9.802573678E0
1.652400333E0,1.789665818E-1,1.334767491E-1,9.795277596E0,9.797821608E0
1.654921687E0,1.693897694E-1,1.382651478E-1,9.790489197E0,9.792930555E0
1.657443094E0,1.550245583E-1,1.574187577E-1,9.795277596E0,9.797768953E0
1.659964552E0,1.646013707E-1,1.478419602E-1,9.795277596E0,9.797775974E0
1.662486062E0,1.789665818E-1,1.382651478E-1,9.785700798E0,9.788313767E0
1.665007625E0,1.646013707E-1,1.334767491E-1,9.780912399E0,9.783207910E0
1.667529239E0,1.789665818E-1,1.526303589E-1,9.800065994E0,9.802888276E0
1.670050854E0,1.693897694E-1,1.526303589E-1,9.809642792E0,9.812292322E0
1.672572469E0,1.598129570E-1,1.430535465E-1,9.800065994E0,9.802412866E0
1.675093666E0,1.550245583E-1,1.430535465E-1,9.790489197E0,9.792761390E0
1.677614656E0,1.598129570E-1,1.478419602E-1,9.790489197E0,9.792909483E0
1.680135541E0,1.598129570E-1,1.526303589E-1,9.785700798E0,9.788195764E0
1.682656427E0,1.693897694E-1,1.382651478E-1,9.780912399E0,9.783356147E0
1.685177312E0,1.646013707E-1,1.430535465E-1,9.771335602E0,9.773768842E0
1.687698094E0,1.789665818E-1,1.334767491E-1,9.785700798E0,9.788247299E0
1.690218875E0,1.646013707E-1,1.478419602E-1,9.780912399E0,9.783414446E0
1.692739656E0,1.693897694E-1,1.478419602E-1,9.800065994E0,9.802644726E0
1.695260437E0,1.646013707E-1,1.478419602E-1,9.780912399E0,9.783414446E0
1.697781219E0,1.550245583E-1,1.478419602E-1,9.785700798E0,9.788045258E0
1.700302052E0,1.598129570E-1,1.526303589E-1,9.790489197E0,9.792982943E0
1.702822937E0,1.741781682E-1,1.526303589E-1,9.795277596E0,9.798014964E0
1.705343875E0,1.693897694E-1,1.478419602E-1,9.776124001E0,9.778709046E0
1.707864916E0,1.885433793E-1,1.526303589E-1,9.766547203E0,9.769559299E0
1.710386062E0,1.789665818E-1,1.430535465E-1,9.785700798E0,9.788382576E0
1.712907312E0,1.693897694E-1,1.478419602E-1,9.785700798E0,9.788283315E0
1.715428614E0,1.646013707E-1,1.526303589E-1,9.785700798E0,9.788275116E0
1.717949969E0,1.598129570E-1,1.526303589E-1,9.785700798E0,9.788195764E0
1.720471323E0,1.646013707E-1,1.478419602E-1,9.795277596E0,9.797775974E0
1.722992677E0,1.693897694E-1,1.669955701E-1,9.800065994E0,9.802952306E0
1.725514031E0,1.646013707E-1,1.526303589E-1,9.790489197E0,9.793062256E0
1.728035229E0,1.693897694E-1,1.526303589E-1,9.790489197E0,9.793143910E0
1.730556062E0,1.646013707E-1,1.574187577E-1,9.790489197E0,9.793138056E0
1.733076896E0,1.789665818E-1,1.669955701E-1,9.795277596E0,9.798335559E0
1.735597573E0,1.837549806E-1,1.669955701E-1,9.785700798E0,9.788850470E0
1.738118250E0,1.693897694E-1,1.574187577E-1,9.771335602E0,9.774071465E0
1.740638927E0,1.646013707E-1,1.526303589E-1,9.771335602E0,9.773913703E0
1.743159604E0,1.789665818E-1,1.478419602E-1,9.790489197E0,9.793240781E0
1.745680281E0,1.741781682E-1,1.478419602E-1,9.790489197E0,9.793154445E0
1.748200958E0,1.741781682E-1,1.334767491E-1,9.804854393E0,9.807309710E0
1.750721635E0,1.646013707E-1,1.574187577E-1,9.800065994E0,9.802712266E0
1.753242364E0,1.598129570E-1,1.526303589E-1,9.790489197E0,9.792982943E0
1.755763146E0,1.789665818E-1,1.478419602E-1,9.790489197E0,9.793240781E0
1.758284031E0,1.693897694E-1,1.478419602E-1,9.776124001E0,9.778709046E0
1.760805021E0,1.741781682E-1,1.430535465E-1,9.790489197E0,9.793083328E0
1.763326114E0,1.741781682E-1,1.478419602E-1,9.785700798E0,9.788367350E0
1.765847312E0,1.885433793E-1,1.430535465E-1,9.785700798E0,9.788562358E0
1.768368614E0,1.789665818E-1,1.334767491E-1,9.776124001E0,9.778672996E0
1.770890021E0,1.693897694E-1,1.478419602E-1,9.771335602E0,9.773921914E0
1.773411531E0,1.598129570E-1,1.430535465E-1,9.785700798E0,9.788051114E0
1.775933146E0,1.741781682E-1,1.430535465E-1,9.795277596E0,9.797870459E0
1.778454864E0,1.550245583E-1,1.574187577E-1,9.790489197E0,9.792981772E0
1.780976687E0,1.598129570E-1,1.574187577E-1,9.790489197E0,9.793058744E0
1.783498614E0,1.646013707E-1,1.669955701E-1,9.785700798E0,9.788509654E0
1.786020594E0,1.598129570E-1,1.478419602E-1,9.790489197E0,9.792909483E0
1.788542625E0,1.646013707E-1,1.238999367E-1,9.780912399E0,9.783081936E0
1.791064656E0,1.741781682E-1,1.382651478E-1,9.790489197E0,9.793014551E0
1.793586427E0,1.646013707E-1,1.430535465E-1,9.795277596E0,9.797704889E0
1.796107677E0,1.646013707E-1,1.430535465E-1,9.795277596E0,9.797704889E0
1.798628771E0,1.789665818E-1,1.238999367E-1,9.780912399E0,9.783334176E0
1.801149864E0,1.741781682E-1,1.334767491E-1,9.795277596E0,9.797735312E0
1.803670958E0,1.693897694E-1,1.430535465E-1,9.800065994E0,9.802573678E0
1.806192052E0,1.741781682E-1,1.382651478E-1,9.785700798E0,9.788227388E0
1.808713146E0,1.741781682E-1,1.334767491E-1,9.814431190E0,9.816884112E0
1.811234239E0,1.741781682E-1,1.430535465E-1,9.790489197E0,9.793083328E0
1.813755333E0,1.646013707E-1,1.430535465E-1,9.780912399E0,9.783343257E0
1.816276427E0,1.646013707E-1,1.574187577E-1,9.790489197E0,9.793138056E0
1.818797521E0,1.598129570E-1,1.478419602E-1,9.780912399E0,9.783335055E0
1.821318614E0,1.789665818E-1,1.478419602E-1,9.785700798E0,9.788453728E0
1.823839760E0,1.693897694E-1,1.478419602E-1,9.800065994E0,9.802644726E0
1.826360958E0,1.789665818E-1,1.430535465E-1,9.790489197E0,9.793169664E0
1.828882260E0,1.693897694E-1,1.622071713E-1,9.776124001E0,9.778936779E0
1.831403666E0,1.502361596E-1,1.574187577E-1,9.804854393E0,9.807268796E0
1.833925177E0,1.693897694E-1,1.574187577E-1,9.809642792E0,9.812367974E0
1.836446791E0,1.789665818E-1,1.430535465E-1,9.785700798E0,9.788382576E0
1.838968510E0,1.693897694E-1,1.382651478E-1,9.771335602E0,9.773781744E0
1.841490333E0,1.550245583E-1,1.430535465E-1,9.780912399E0,9.783186817E0
1.844012208E0,1.693897694E-1,1.430535465E-1,9.785700798E0,9.788212162E0
1.846534135E0,1.789665818E-1,1.526303589E-1,9.780912399E0,9.783740206E0
1.849056114E0,1.885433793E-1,1.526303589E-1,9.795277596E0,9.798280860E0
1.851578094E0,1.837549806E-1,1.526303589E-1,9.790489197E0,9.793402914E0
1.854099760E0,1.646013707E-1,1.669955701E-1,9.790489197E0,9.793296679E0
1.856620750E0,1.646013707E-1,1.622071713E-1,9.804854393E0,9.807577399E0
1.859141739E0,1.693897694E-1,1.574187577E-1,9.790489197E0,9.793219709E0
1.861662729E0,1.741781682E-1,1.526303589E-1,9.795277596E0,9.798014964E0
1.864183719E0,1.646013707E-1,1.478419602E-1,9.785700798E0,9.788201621E0
1.866704708E0,1.646013707E-1,1.526303589E-1,9.771335602E0,9.773913703E0
1.869225698E0,1.646013707E-1,1.478419602E-1,9.776124001E0,9.778627272E0
1.871746583E0,1.550245583E-1,1.430535465E-1,9.804854393E0,9.807123258E0
1.874267104E0,1.454477459E-1,1.574187577E-1,9.804854393E0,9.807196612E0
1.876787625E0,1.646013707E-1,1.622071713E-1,9.795277596E0,9.798003263E0
1.879308146E0,1.646013707E-1,1.526303589E-1,9.795277596E0,9.797849397E0
1.881828666E0,1.598129570E-1,1.430535465E-1,9.790489197E0,9.792838363E0
1.884349239E0,1.646013707E-1,1.478419602E-1,9.790489197E0,9.792988797E0
1.886869864E0,1.693897694E-1,1.574187577E-1,9.761758804E0,9.764497351E0
1.889390541E0,1.550245583E-1,1.717839688E-1,9.761758804E0,9.764500873E0
1.891911323E0,1.693897694E-1,1.717839688E-1,9.790489197E0,9.793461152E0
1.894432208E0,1.550245583E-1,1.526303589E-1,9.780912399E0,9.783331539E0
1.896953198E0,1.646013707E-1,1.478419602E-1,9.795277596E0,9.797775974E0
1.899474291E0,1.598129570E-1,1.382651478E-1,9.776124001E0,9.778407739E0
1.901995489E0,1.646013707E-1,1.430535465E-1,9.790489197E0,9.792917678E0
1.904516791E0,1.598129570E-1,1.382651478E-1,9.800065994E0,9.802344155E0
1.907038146E0,1.693897694E-1,1.478419602E-1,9.809642792E0,9.812219007E0
1.909559552E0,1.693897694E-1,1.382651478E-1,9.800065994E0,9.802504967E0
1.912081010E0,1.646013707E-1,1.478419602E-1,9.795277596E0,9.797775974E0
1.914602469E0,1.741781682E-1,1.334767491E-1,9.795277596E0,9.797735312E0
1.917123771E0,1.693897694E-1,1.286883354E-1,9.780912399E0,9.783225488E0
1.919644500E0,1.741781682E-1,1.286883354E-1,9.790489197E0,9.792884020E0
1.922165229E0,1.789665818E-1,1.430535465E-1,9.785700798E0,9.788382576E0
1.924685906E0,1.741781682E-1,1.526303589E-1,9.785700798E0,9.788440845E0
1.927206583E0,1.646013707E-1,1.382651478E-1,9.800065994E0,9.802423392E0
1.929727260E0,1.693897694E-1,1.334767491E-1,9.795277596E0,9.797651357E0
1.932247937E0,1.837549806E-1,1.430535465E-1,9.780912399E0,9.783684254E0
1.934768614E0,1.789665818E-1,1.334767491E-1,9.795277596E0,9.797821608E0
1.937289291E0,1.837549806E-1,1.286883354E-1,9.800065994E0,9.802633323E0
1.939809969E0,1.789665818E-1,1.478419602E-1,9.800065994E0,9.802814890E0
1.942330646E0,1.837549806E-1,1.478419602E-1,9.814431190E0,9.817264524E0
1.944851323E0,1.885433793E-1,1.430535465E-1,9.809642792E0,9.812497369E0
1.947372052E0,1.837549806E-1,1.238999367E-1,9.800065994E0,9.802571631E0
1.949892833E0,1.693897694E-1,1.382651478E-1,9.790489197E0,9.792930555E0
1.952413666E0,1.646013707E-1,1.478419602E-1,9.776124001E0,9.778627272E0
1.954934552E0,1.598129570E-1,1.238999367E-1,9.776124001E0,9.778215167E0
1.957455489E0,1.741781682E-1,1.286883354E-1,9.766547203E0,9.768947896E0
1.959976479E0,1.646013707E-1,1.478419602E-1,9.776124001E0,9.778627272E0
1.962497469E0,1.693897694E-1,1.382651478E-1,9.795277596E0,9.797717761E0
1.965018458E0,1.693897694E-1,1.382651478E-1,9.790489197E0,9.792930555E0
1.967539448E0,1.646013707E-1,1.334767491E-1,9.780912399E0,9.783207910E0
1.970060385E0,1.646013707E-1,1.334767491E-1,9.790489197E0,9.792782463E0
1.972580906E0,1.502361596E-1,1.286883354E-1,9.795277596E0,9.797274864E0
1.975101427E0,1.646013707E-1,1.382651478E-1,9.795277596E0,9.797636145E0
1.977621948E0,1.741781682E-1,1.430535465E-1,9.819219589E0,9.821806132E0
1.980142469E0,1.789665818E-1,1.382651478E-1,9.790489197E0,9.793100888E0
1.982662989E0,1.646013707E-1,1.478419602E-1,9.795277596E0,9.797775974E0
1.985183562E0,1.789665818E-1,1.382651478E-1,9.800065994E0,9.802675134E0
1.987704187E0,1.837549806E-1,1.334767491E-1,9.800065994E0,9.802697355E0
1.990224864E0,1.741781682E-1,1.382651478E-1,9.785700798E0,9.788227388E0
1.992745594E0,1.693897694E-1,1.334767491E-1,9.785700798E0,9.788076882E0
1.995266427E0,1.741781682E-1,1.430535465E-1,9.795277596E0,9.797870459E0
1.997787364E0,1.693897694E-1,1.430535465E-1,9.804854393E0,9.807360852E0
2.000308354E0,1.837549806E-1,1.382651478E-1,9.800065994E0,9.802763724E0
2.002829396E0,1.646013707E-1,1.430535465E-1,9.800065994E0,9.802492103E0
2.005350489E0,1.741781682E-1,1.526303589E-1,9.800065994E0,9.802802026E0
2.007871583E0,1.693897694E-1,1.478419602E-1,9.795277596E0,9.797857588E0
2.010392677E0,1.741781682E-1,1.382651478E-1,9.776124001E0,9.778653065E0
2.012913771E0,1.693897694E-1,1.430535465E-1,9.785700798E0,9.788212162E0
2.015434864E0,1.693897694E-1,1.430535465E-1,9.785700798E0,9.788212162E0
2.017956010E0,1.646013707E-1,1.574187577E-1,9.780912399E0,9.783563852E0
2.020477208E0,1.693897694E-1,1.526303589E-1,9.795277596E0,9.797931011E0
2.022998458E0,1.598129570E-1,1.430535465E-1,9.800065994E0,9.802412866E0
2.025519760E0,1.646013707E-1,1.382651478E-1,9.795277596E0,9.797636145E0
2.028041062E0,1.693897694E-1,1.478419602E-1,9.785700798E0,9.788283315E0
2.030562364E0,1.741781682E-1,1.526303589E-1,9.790489197E0,9.793227904E0
2.033083666E0,1.693897694E-1,1.478419602E-1,9.780912399E0,9.783496180E0
2.035605021E0,1.598129570E-1,1.382651478E-1,9.780912399E0,9.783195020E0
2.038126427E0,1.550245583E-1,1.382651478E-1,9.771335602E0,9.773543334E0
2.040647885E0,1.598129570E-1,1.478419602E-1,9.780912399E0,9.783335055E0
2.043169344E0,1.598129570E-1,1.478419602E-1,9.785700798E0,9.788122268E0
2.045690802E0,1.598129570E-1,1.526303589E-1,9.776124001E0,9.778621410E0
2.048212260E0,1.646013707E-1,1.478419602E-1,9.780912399E0,9.783414446E0
2.050733719E0,1.741781682E-1,1.478419602E-1,9.800065994E0,9.802728639E0
2.053255177E0,1.646013707E-1,1.574187577E-1,9.785700798E0,9.788350953E0
2.055776635E0,1.693897694E-1,1.574187577E-1,9.804854393E0,9.807580906E0
2.058298041E0,1.598129570E-1,1.526303589E-1,9.785700798E0,9.788195764E0
2.060819083E0,1.646013707E-1,1.478419602E-1,9.776124001E0,9.778627272E0
2.063340125E0,1.693897694E-1,1.334767491E-1,9.780912399E0,9.783289646E0
2.065861166E0,1.741781682E-1,1.478419602E-1,9.790489197E0,9.793154445E0
2.068382208E0,1.789665818E-1,1.286883354E-1,9.785700798E0,9.788183173E0
2.070903250E0,1.598129570E-1,1.286883354E-1,9.780912399E0,9.783064358E0
2.073424291E0,1.646013707E-1,1.430535465E-1,9.795277596E0,9.797704889E0
2.075945333E0,1.837549806E-1,1.430535465E-1,9.800065994E0,9.802832433E0
2.078466375E0,1.837549806E-1,1.430535465E-1,9.780912399E0,9.783684254E0
2.080987416E0,1.741781682E-1,1.478419602E-1,9.790489197E0,9.793154445E0
2.083508510E0,1.598129570E-1,1.478419602E-1,9.795277596E0,9.797696699E0
2.086029604E0,1.693897694E-1,1.430535465E-1,9.780912399E0,9.783424992E0
2.088550698E0,1.693897694E-1,1.430535465E-1,9.790489197E0,9.792999332E0
2.091071791E0,1.789665818E-1,1.382651478E-1,9.809642792E0,9.812249385E0
2.093592885E0,1.646013707E-1,1.382651478E-1,9.814431190E0,9.816785138E0
2.096113979E0,1.693897694E-1,1.478419602E-1,9.800065994E0,9.802644726E0
2.098635073E0,1.598129570E-1,1.478419602E-1,9.804854393E0,9.807271134E0
2.101156166E0,1.598129570E-1,1.382651478E-1,9.790489197E0,9.792769585E0
2.103677260E0,1.741781682E-1,1.478419602E-1,9.785700798E0,9.788367350E0
2.106198354E0,1.693897694E-1,1.478419602E-1,9.780912399E0,9.783496180E0
2.108719448E0,1.598129570E-1,1.334767491E-1,9.780912399E0,9.783128517E0
2.111240541E0,1.693897694E-1,1.478419602E-1,9.780912399E0,9.783496180E0
2.113761635E0,1.741781682E-1,1.478419602E-1,9.785700798E0,9.788367350E0
2.116282729E0,1.693897694E-1,1.382651478E-1,9.790489197E0,9.792930555E0
2.118803771E0,1.598129570E-1,1.430535465E-1,9.785700798E0,9.788051114E0
2.121324500E0,1.693897694E-1,1.526303589E-1,9.790489197E0,9.793143910E0
2.123845229E0,1.741781682E-1,1.478419602E-1,9.790489197E0,9.793154445E0
2.126365958E0,1.646013707E-1,1.430535465E-1,9.785700798E0,9.788130467E0
2.128886687E0,1.550245583E-1,1.286883354E-1,9.790489197E0,9.792562076E0
2.131407416E0,1.693897694E-1,1.478419602E-1,9.800065994E0,9.802644726E0
2.133928146E0,1.789665818E-1,1.526303589E-1,9.785700798E0,9.788527222E0
2.136448875E0,1.646013707E-1,1.382651478E-1,9.780912399E0,9.783274412E0
2.138969604E0,1.598129570E-1,1.334767491E-1,9.804854393E0,9.807065101E0
2.141490385E0,1.598129570E-1,1.382651478E-1,9.800065994E0,9.802344155E0
2.144011219E0,1.693897694E-1,1.526303589E-1,9.785700798E0,9.788356809E0
2.146532104E0,1.693897694E-1,1.382651478E-1,9.771335602E0,9.773781744E0
2.149053041E0,1.933317930E-1,1.430535465E-1,9.776124001E0,9.779081857E0
2.151574083E0,1.789665818E-1,1.526303589E-1,9.766547203E0,9.769379168E0
2.154095229E0,1.741781682E-1,1.622071713E-1,9.785700798E0,9.788594859E0
2.156616479E0,1.741781682E-1,1.478419602E-1,9.795277596E0,9.797941542E0
2.159137833E0,1.598129570E-1,1.526303589E-1,9.809642792E0,9.812131670E0
2.161659291E0,1.598129570E-1,1.526303589E-1,9.800065994E0,9.802557304E0
2.164180854E0,1.550245583E-1,1.717839688E-1,9.800065994E0,9.802797348E0
2.166702469E0,1.502361596E-1,1.717839688E-1,9.776124001E0,9.778787303E0
2.169224135E0,1.550245583E-1,1.717839688E-1,9.790489197E0,9.793223221E0
2.171745854E0,1.693897694E-1,1.622071713E-1,9.785700798E0,9.788510825E0
2.174267573E0,1.693897694E-1,1.574187577E-1,9.800065994E0,9.802793839E0
2.176788510E0,1.693897694E-1,1.478419602E-1,9.785700798E0,9.788283315E0
2.179309239E0,1.789665818E-1,1.669955701E-1,9.780912399E0,9.783974853E0
2.181829969E0,1.885433793E-1,1.622071713E-1,9.785700798E0,9.788861010E0
2.184350698E0,1.789665818E-1,1.430535465E-1,9.776124001E0,9.778808405E0
2.186871427E0,1.693897694E-1,1.526303589E-1,9.780912399E0,9.783569711E0
2.189392156E0,1.789665818E-1,1.574187577E-1,9.785700798E0,9.788603057E0
2.191912573E0,1.885433793E-1,1.478419602E-1,9.800065994E0,9.802994407E0
2.194432989E0,1.837549806E-1,1.574187577E-1,9.800065994E0,9.803052588E0
2.196953406E0,1.789665818E-1,1.478419602E-1,9.800065994E0,9.802814890E0
2.199473823E0,1.789665818E-1,1.574187577E-1,9.780912399E0,9.783816079E0
2.201994239E0,1.741781682E-1,1.526303589E-1,9.771335602E0,9.774079676E0
2.204514656E0,1.741781682E-1,1.669955701E-1,9.785700798E0,9.788675378E0
2.207035073E0,1.693897694E-1,1.717839688E-1,9.780912399E0,9.783887264E0
2.209555489E0,1.789665818E-1,1.430535465E-1,9.771335602E0,9.774021322E0
2.212075906E0,1.598129570E-1,1.526303589E-1,9.776124001E0,9.778621410E0
2.214596323E0,1.598129570E-1,1.526303589E-1,9.790489197E0,9.792982943E0
2.217116791E0,1.741781682E-1,1.574187577E-1,9.785700798E0,9.788516681E0
2.219637312E0,1.550245583E-1,1.526303589E-1,9.780912399E0,9.783331539E0
2.222157937E0,1.454477459E-1,1.430535465E-1,9.785700798E0,9.787827107E0
2.224678666E0,1.741781682E-1,1.382651478E-1,9.780912399E0,9.783440226E0
2.227199500E0,1.885433793E-1,1.430535465E-1,9.790489197E0,9.793349357E0
2.229720437E0,1.693897694E-1,1.526303589E-1,9.790489197E0,9.793143910E0
2.232241479E0,1.693897694E-1,1.478419602E-1,9.790489197E0,9.793070451E0
2.234762625E0,1.741781682E-1,1.334767491E-1,9.795277596E0,9.797735312E0
2.237283875E0,1.789665818E-1,1.430535465E-1,9.771335602E0,9.774021322E0
2.239805229E0,1.741781682E-1,1.526303589E-1,9.780912399E0,9.783653787E0
2.242326635E0,1.550245583E-1,1.574187577E-1,9.795277596E0,9.797768953E0
2.244848094E0,1.502361596E-1,1.478419602E-1,9.795277596E0,9.797545168E0
2.247369604E0,1.693897694E-1,1.478419602E-1,9.800065994E0,9.802644726E0
2.249891166E0,1.550245583E-1,1.382651478E-1,9.790489197E0,9.792692611E0
2.252412729E0,1.741781682E-1,1.478419602E-1,9.780912399E0,9.783580257E0
2.254934291E0,1.789665818E-1,1.478419602E-1,9.785700798E0,9.788453728E0
2.257455854E0,1.741781682E-1,1.382651478E-1,9.785700798E0,9.788227388E0
2.259977104E0,1.693897694E-1,1.191115379E-1,9.790489197E0,9.792678855E0
2.262498250E0,1.454477459E-1,1.191115379E-1,9.785700798E0,9.787506460E0
2.265019396E0,1.646013707E-1,1.334767491E-1,9.790489197E0,9.792782463E0
2.267540541E0,1.789665818E-1,1.430535465E-1,9.795277596E0,9.797956753E0
2.270061687E0,1.693897694E-1,1.622071713E-1,9.790489197E0,9.793297850E0
2.272582781E0,1.646013707E-1,1.382651478E-1,9.780912399E0,9.783274412E0
2.275103823E0,1.550245583E-1,1.382651478E-1,9.795277596E0,9.797479933E0
2.277624864E0,1.598129570E-1,1.430535465E-1,9.790489197E0,9.792838363E0
2.280145906E0,1.789665818E-1,1.430535465E-1,9.780912399E0,9.783595490E0
2.282666948E0,1.646013707E-1,1.430535465E-1,9.785700798E0,9.788130467E0
2.285187989E0,1.693897694E-1,1.382651478E-1,9.780912399E0,9.783356147E0
2.287709031E0,1.741781682E-1,1.478419602E-1,9.790489197E0,9.793154445E0
2.290230073E0,1.646013707E-1,1.526303589E-1,9.795277596E0,9.797849397E0
2.292751114E0,1.646013707E-1,1.382651478E-1,9.790489197E0,9.792848900E0
2.295272156E0,1.646013707E-1,1.478419602E-1,9.776124001E0,9.778627272E0
2.297793198E0,1.693897694E-1,1.334767491E-1,9.800065994E0,9.802438596E0
2.300314239E0,1.741781682E-1,1.286883354E-1,9.780912399E0,9.783309567E0
2.302835281E0,1.646013707E-1,1.334767491E-1,9.785700798E0,9.787995186E0
2.305356323E0,1.598129570E-1,1.286883354E-1,9.785700798E0,9.787851704E0
2.307877416E0,1.646013707E-1,1.334767491E-1,9.795277596E0,9.797569741E0
2.310398562E0,1.693897694E-1,1.430535465E-1,9.785700798E0,9.788212162E0
2.312919760E0,1.789665818E-1,1.526303589E-1,9.785700798E0,9.788527222E0
2.315441010E0,1.741781682E-1,1.478419602E-1,9.785700798E0,9.788367350E0
2.317962260E0,1.646013707E-1,1.430535465E-1,9.790489197E0,9.792917678E0
2.320483562E0,1.693897694E-1,1.574187577E-1,9.804854393E0,9.807580906E0
2.323004916E0,1.789665818E-1,1.382651478E-1,9.795277596E0,9.797888010E0
2.325526323E0,1.741781682E-1,1.286883354E-1,9.809642792E0,9.812032940E0
2.328047729E0,1.693897694E-1,1.382651478E-1,9.785700798E0,9.788143351E0
2.330569135E0,1.789665818E-1,1.430535465E-1,9.804854393E0,9.807530934E0
2.333090541E0,1.741781682E-1,1.526303589E-1,9.795277596E0,9.798014964E0
2.335611948E0,1.837549806E-1,1.430535465E-1,9.790489197E0,9.793258340E0
2.338133354E0,1.933317930E-1,1.430535465E-1,9.780912399E0,9.783868809E0
2.340654760E0,1.789665818E-1,1.430535465E-1,9.785700798E0,9.788382576E0
2.343176166E0,1.646013707E-1,1.574187577E-1,9.795277596E0,9.797925160E0
2.345697573E0,1.646013707E-1,1.478419602E-1,9.804854393E0,9.807350331E0
2.348218979E0,1.454477459E-1,1.622071713E-1,9.809642792E0,9.812061858E0
2.350740385E0,1.550245583E-1,1.478419602E-1,9.795277596E0,9.797619764E0
2.353261791E0,1.502361596E-1,1.430535465E-1,9.790489197E0,9.792686758E0
2.355783198E0,1.741781682E-1,1.478419602E-1,9.771335602E0,9.774006073E0
2.358304604E0,1.741781682E-1,1.526303589E-1,9.776124001E0,9.778866731E0
2.360826010E0,1.550245583E-1,1.478419602E-1,9.790489197E0,9.792832510E0
2.363347156E0,1.693897694E-1,1.382651478E-1,9.790489197E0,9.792930555E0
2.365868198E0,1.693897694E-1,1.382651478E-1,9.785700798E0,9.788143351E0
2.368389239E0,1.789665818E-1,1.334767491E-1,9.790489197E0,9.793034453E0
2.370910281E0,1.741781682E-1,1.382651478E-1,9.771335602E0,9.773865905E0
2.373431323E0,1.646013707E-1,1.430535465E-1,9.790489197E0,9.792917678E0
2.375952364E0,1.598129570E-1,1.574187577E-1,9.809642792E0,9.812207323E0
2.378473406E0,1.693897694E-1,1.478419602E-1,9.785700798E0,9.788283315E0
2.380994448E0,1.693897694E-1,1.382651478E-1,9.785700798E0,9.788143351E0
2.383515489E0,1.693897694E-1,1.382651478E-1,9.800065994E0,9.802504967E0
2.386036531E0,1.646013707E-1,1.478419602E-1,9.804854393E0,9.807350331E0
2.388557625E0,1.598129570E-1,1.526303589E-1,9.795277596E0,9.797770123E0
2.391078771E0,1.789665818E-1,1.526303589E-1,9.790489197E0,9.793314239E0
2.393599969E0,1.837549806E-1,1.478419602E-1,9.790489197E0,9.793329457E0
2.396121219E0,1.741781682E-1,1.382651478E-1,9.800065994E0,9.802588881E0
2.398642469E0,1.598129570E-1,1.334767491E-1,9.814431190E0,9.816639742E0
2.401163719E0,1.646013707E-1,1.382651478E-1,9.790489197E0,9.792848900E0
2.403684969E0,1.598129570E-1,1.334767491E-1,9.795277596E0,9.797490464E0
2.406206219E0,1.550245583E-1,1.478419602E-1,9.790489197E0,9.792832510E0
2.408727156E0,1.454477459E-1,1.478419602E-1,9.800065994E0,9.802260239E0
2.411247989E0,1.502361596E-1,1.382651478E-1,9.804854393E0,9.806980056E0
2.413768771E0,1.598129570E-1,1.382651478E-1,9.790489197E0,9.792769585E0
2.416289552E0,1.598129570E-1,1.478419602E-1,9.795277596E0,9.797696699E0
2.418810333E0,1.741781682E-1,1.334767491E-1,9.795277596E0,9.797735312E0
2.421331114E0,1.741781682E-1,1.334767491E-1,9.800065994E0,9.802522510E0
2.423851896E0,1.550245583E-1,1.526303589E-1,9.809642792E0,9.812054848E0
2.426372677E0,1.741781682E-1,1.382651478E-1,9.790489197E0,9.793014551E0
2.428893458E0,1.646013707E-1,1.526303589E-1,9.776124001E0,9.778700840E0
2.431414239E0,1.693897694E-1,1.574187577E-1,9.780912399E0,9.783645584E0
2.433935073E0,1.885433793E-1,1.382651478E-1,9.780912399E0,9.783706517E0
2.436455958E0,1.741781682E-1,1.334767491E-1,9.795277596E0,9.797735312E0
2.438976896E0,1.741781682E-1,1.382651478E-1,9.780912399E0,9.783440226E0
2.441497885E0,1.646013707E-1,1.334767491E-1,9.780912399E0,9.783207910E0
2.444018927E0,1.598129570E-1,1.382651478E-1,9.785700798E0,9.787982302E0
2.446539969E0,1.885433793E-1,1.382651478E-1,9.814431190E0,9.817215769E0
2.449061010E0,1.837549806E-1,1.478419602E-1,9.790489197E0,9.793329457E0
2.451582052E0,1.837549806E-1,1.382651478E-1,9.800065994E0,9.802763724E0
2.454103094E0,1.789665818E-1,1.430535465E-1,9.785700798E0,9.788382576E0
2.456624031E0,1.789665818E-1,1.286883354E-1,9.780912399E0,9.783395990E0
2.459144969E0,1.693897694E-1,1.526303589E-1,9.795277596E0,9.797931011E0
2.461665906E0,1.837549806E-1,1.286883354E-1,9.785700798E0,9.788271895E0
2.464186844E0,1.693897694E-1,1.334767491E-1,9.785700798E0,9.788076882E0
2.466707781E0,1.598129570E-1,1.334767491E-1,9.790489197E0,9.792703148E0
2.469228719E0,1.789665818E-1,1.478419602E-1,9.795277596E0,9.798027835E0
2.471749656E0,1.789665818E-1,1.574187577E-1,9.771335602E0,9.774242126E0
2.474270646E0,1.741781682E-1,1.526303589E-1,9.776124001E0,9.778866731E0
2.476791635E0,1.598129570E-1,1.382651478E-1,9.790489197E0,9.792769585E0
2.479312625E0,1.550245583E-1,1.430535465E-1,9.790489197E0,9.792761390E0
2.481833614E0,1.693897694E-1,1.430535465E-1,9.790489197E0,9.792999332E0
2.484354604E0,1.598129570E-1,1.430535465E-1,9.766547203E0,9.768902127E0
2.486875594E0,1.646013707E-1,1.622071713E-1,9.780912399E0,9.783642069E0
2.489396583E0,1.837549806E-1,1.526303589E-1,9.795277596E0,9.798189889E0
2.491917573E0,1.598129570E-1,1.430535465E-1,9.800065994E0,9.802412866E0
2.494438510E0,1.454477459E-1,1.574187577E-1,9.795277596E0,9.797622104E0
2.496959448E0,1.741781682E-1,1.382651478E-1,9.785700798E0,9.788227388E0
2.499480385E0,1.741781682E-1,1.430535465E-1,9.780912399E0,9.783509070E0
2.502001323E0,1.741781682E-1,1.526303589E-1,9.790489197E0,9.793227904E0
2.504522260E0,1.693897694E-1,1.669955701E-1,9.780912399E0,9.783804361E0
2.507043198E0,1.741781682E-1,1.669955701E-1,9.785700798E0,9.788675378E0
2.509564135E0,1.741781682E-1,1.574187577E-1,9.800065994E0,9.802877751E0
2.512085073E0,1.646013707E-1,1.478419602E-1,9.790489197E0,9.792988797E0
2.514606010E0,1.885433793E-1,1.478419602E-1,9.790489197E0,9.793420473E0
2.517126896E0,1.789665818E-1,1.334767491E-1,9.790489197E0,9.793034453E0
2.519647469E0,1.741781682E-1,1.478419602E-1,9.776124001E0,9.778793164E0
2.522168041E0,1.789665818E-1,1.526303589E-1,9.780912399E0,9.783740206E0
2.524688614E0,1.646013707E-1,1.622071713E-1,9.780912399E0,9.783642069E0
2.527209187E0,1.693897694E-1,1.574187577E-1,9.804854393E0,9.807580906E0
2.529729760E0,1.741781682E-1,1.526303589E-1,9.809642792E0,9.812376153E0
2.532250333E0,1.646013707E-1,1.430535465E-1,9.804854393E0,9.807279317E0
2.534770906E0,1.598129570E-1,1.765723825E-1,9.790489197E0,9.793385354E0
2.537291479E0,1.598129570E-1,1.669955701E-1,9.795277596E0,9.798004433E0
2.539812052E0,1.693897694E-1,1.526303589E-1,9.804854393E0,9.807505217E0
2.542332625E0,1.550245583E-1,1.430535465E-1,9.795277596E0,9.797548678E0
2.544853198E0,1.693897694E-1,1.334767491E-1,9.785700798E0,9.788076882E0
2.547373771E0,1.789665818E-1,1.622071713E-1,9.800065994E0,9.803042063E0
2.549894344E0,1.646013707E-1,1.526303589E-1,9.795277596E0,9.797849397E0
2.552414916E0,1.646013707E-1,1.430535465E-1,9.800065994E0,9.802492103E0
2.554935489E0,1.693897694E-1,1.382651478E-1,9.800065994E0,9.802504967E0
2.557456062E0,1.789665818E-1,1.574187577E-1,9.780912399E0,9.783816079E0
2.559976635E0,1.789665818E-1,1.526303589E-1,9.790489197E0,9.793314239E0
2.562497208E0,1.741781682E-1,1.526303589E-1,9.790489197E0,9.793227904E0
2.565017781E0,1.693897694E-1,1.382651478E-1,9.785700798E0,9.788143351E0
2.567538354E0,1.741781682E-1,1.478419602E-1,9.785700798E0,9.788367350E0
2.570058927E0,1.693897694E-1,1.430535465E-1,9.780912399E0,9.783424992E0
2.572579500E0,1.598129570E-1,1.526303589E-1,9.785700798E0,9.788195764E0
2.575100073E0,1.693897694E-1,1.478419602E-1,9.785700798E0,9.788283315E0
2.577620646E0,1.741781682E-1,1.478419602E-1,9.785700798E0,9.788367350E0
2.580141219E0,1.789665818E-1,1.574187577E-1,9.790489197E0,9.793390037E0
2.582661791E0,1.789665818E-1,1.526303589E-1,9.795277596E0,9.798101257E0
2.585182416E0,1.646013707E-1,1.382651478E-1,9.780912399E0,9.783274412E0
2.587703094E0,1.741781682E-1,1.286883354E-1,9.809642792E0,9.812032940E0
2.590223823E0,1.789665818E-1,1.286883354E-1,9.795277596E0,9.797757544E0
2.592744604E0,1.646013707E-1,1.286883354E-1,9.790489197E0,9.792718367E0
2.595265437E0,1.693897694E-1,1.382651478E-1,9.780912399E0,9.783356147E0
2.597786323E0,1.885433793E-1,1.478419602E-1,9.790489197E0,9.793420473E0
2.600307260E0,1.789665818E-1,1.430535465E-1,9.785700798E0,9.788382576E0
2.602828250E0,1.789665818E-1,1.430535465E-1,9.795277596E0,9.797956753E0
2.605349291E0,1.789665818E-1,1.478419602E-1,9.790489197E0,9.793240781E0
2.607870437E0,1.789665818E-1,1.430535465E-1,9.795277596E0,9.797956753E0
2.610391635E0,1.598129570E-1,1.478419602E-1,9.790489197E0,9.792909483E0
2.612912885E0,1.693897694E-1,1.382651478E-1,9.785700798E0,9.788143351E0
2.615434187E0,1.693897694E-1,1.382651478E-1,9.790489197E0,9.792930555E0
2.617955489E0,1.598129570E-1,1.526303589E-1,9.800065994E0,9.802557304E0
2.620476791E0,1.646013707E-1,1.382651478E-1,9.800065994E0,9.802423392E0
2.622997364E0,1.550245583E-1,1.478419602E-1,9.804854393E0,9.807194274E0
2.625517937E0,1.646013707E-1,1.430535465E-1,9.795277596E0,9.797704889E0
2.628038510E0,1.741781682E-1,1.430535465E-1,9.776124001E0,9.778721942E0
2.630559083E0,1.741781682E-1,1.382651478E-1,9.780912399E0,9.783440226E0
2.633079656E0,1.789665818E-1,1.382651478E-1,9.800065994E0,9.802675134E0
2.635600229E0,1.837549806E-1,1.526303589E-1,9.795277596E0,9.798189889E0
2.638120854E0,1.789665818E-1,1.430535465E-1,9.800065994E0,9.802743843E0
2.640641531E0,1.837549806E-1,1.430535465E-1,9.809642792E0,9.812406530E0
2.643162260E0,1.693897694E-1,1.478419602E-1,9.804854393E0,9.807431866E0
2.645683041E0,1.789665818E-1,1.430535465E-1,9.800065994E0,9.802743843E0
2.648203875E0,1.550245583E-1,1.286883354E-1,9.795277596E0,9.797349462E0
2.650724708E0,1.550245583E-1,1.478419602E-1,9.785700798E0,9.788045258E0
2.653245541E0,1.693897694E-1,1.478419602E-1,9.795277596E0,9.797857588E0
2.655766427E0,1.741781682E-1,1.334767491E-1,9.790489197E0,9.792948115E0
2.658287364E0,1.741781682E-1,1.382651478E-1,9.780912399E0,9.783440226E0
2.660808354E0,1.646013707E-1,1.334767491E-1,9.780912399E0,9.783207910E0
2.663329396E0,1.837549806E-1,1.382651478E-1,9.780912399E0,9.783615411E0
2.665850489E0,1.789665818E-1,1.430535465E-1,9.785700798E0,9.788382576E0
2.668371635E0,1.789665818E-1,1.382651478E-1,9.800065994E0,9.802675134E0
2.670892781E0,1.693897694E-1,1.478419602E-1,9.785700798E0,9.788283315E0
2.673413927E0,1.741781682E-1,1.526303589E-1,9.785700798E0,9.788440845E0
2.675934760E0,1.646013707E-1,1.430535465E-1,9.790489197E0,9.792917678E0
2.678455385E0,1.550245583E-1,1.526303589E-1,9.780912399E0,9.783331539E0
2.680976010E0,1.693897694E-1,1.574187577E-1,9.790489197E0,9.793219709E0
2.683496635E0,1.789665818E-1,1.382651478E-1,9.785700798E0,9.788313767E0
2.686017260E0,1.693897694E-1,1.574187577E-1,9.790489197E0,9.793219709E0
2.688537885E0,1.598129570E-1,1.526303589E-1,9.785700798E0,9.788195764E0
2.691058510E0,1.550245583E-1,1.526303589E-1,9.785700798E0,9.788118754E0
2.693579135E0,1.789665818E-1,1.574187577E-1,9.800065994E0,9.802964000E0
2.696099812E0,1.837549806E-1,1.526303589E-1,9.795277596E0,9.798189889E0
2.698620541E0,1.598129570E-1,1.382651478E-1,9.795277596E0,9.797556869E0
2.701141323E0,1.502361596E-1,1.574187577E-1,9.785700798E0,9.788119926E0
2.703662156E0,1.693897694E-1,1.430535465E-1,9.785700798E0,9.788212162E0
2.706183041E0,1.741781682E-1,1.526303589E-1,9.800065994E0,9.802802026E0
2.708703979E0,1.598129570E-1,1.622071713E-1,9.800065994E0,9.802711096E0
2.711224969E0,1.598129570E-1,1.478419602E-1,9.785700798E0,9.788122268E0
2.713746062E0,1.741781682E-1,1.574187577E-1,9.800065994E0,9.802877751E0
2.716267208E0,1.646013707E-1,1.574187577E-1,9.785700798E0,9.788350953E0
2.718788406E0,1.693897694E-1,1.526303589E-1,9.795277596E0,9.797931011E0
2.721309708E0,1.693897694E-1,1.430535465E-1,9.795277596E0,9.797786504E0
2.723831062E0,1.789665818E-1,1.382651478E-1,9.814431190E0,9.817036512E0
2.726352469E0,1.741781682E-1,1.430535465E-1,9.790489197E0,9.793083328E0
2.728873927E0,1.598129570E-1,1.478419602E-1,9.804854393E0,9.807271134E0
2.731395385E0,1.550245583E-1,1.622071713E-1,9.790489197E0,9.793059915E0
2.733916844E0,1.598129570E-1,1.430535465E-1,9.780912399E0,9.783263865E0
2.736438302E0,1.741781682E-1,1.526303589E-1,9.780912399E0,9.783653787E0
2.738959760E0,1.741781682E-1,1.382651478E-1,9.780912399E0,9.783440226E0
2.741481219E0,1.646013707E-1,1.478419602E-1,9.790489197E0,9.792988797E0
2.744002677E0,1.741781682E-1,1.526303589E-1,9.785700798E0,9.788440845E0
2.746524135E0,1.741781682E-1,1.622071713E-1,9.785700798E0,9.788594859E0
2.749045594E0,1.646013707E-1,1.478419602E-1,9.790489197E0,9.792988797E0
2.751567052E0,1.693897694E-1,1.286883354E-1,9.785700798E0,9.788012755E0
2.754088510E0,1.741781682E-1,1.478419602E-1,9.785700798E0,9.788367350E0
2.756609969E0,1.693897694E-1,1.430535465E-1,9.785700798E0,9.788212162E0
2.759131427E0,1.693897694E-1,1.430535465E-1,9.776124001E0,9.778637824E0
2.761652625E0,1.741781682E-1,1.382651478E-1,9.790489197E0,9.793014551E0
2.764173562E0,1.550245583E-1,1.526303589E-1,9.795277596E0,9.797693188E0
2.766694500E0,1.646013707E-1,1.526303589E-1,9.800065994E0,9.802636540E0
2.769215437E0,1.789665818E-1,1.574187577E-1,9.790489197E0,9.793390037E0
2.771736375E0,1.741781682E-1,1.334767491E-1,9.780912399E0,9.783373725E0
2.774257260E0,1.789665818E-1,1.334767491E-1,9.800065994E0,9.802608764E0
2.776778146E0,1.646013707E-1,1.334767491E-1,9.800065994E0,9.802357020E0
2.779299031E0,1.741781682E-1,1.430535465E-1,9.800065994E0,9.802657591E0
2.781819916E0,1.646013707E-1,1.382651478E-1,9.780912399E0,9.783274412E0
2.784340750E0,1.741781682E-1,1.430535465E-1,9.790489197E0,9.793083328E0
2.786861531E0,1.646013707E-1,1.478419602E-1,9.785700798E0,9.788201621E0
2.789382312E0,1.741781682E-1,1.478419602E-1,9.776124001E0,9.778793164E0
2.791903094E0,1.789665818E-1,1.430535465E-1,9.776124001E0,9.778808405E0
2.794423875E0,1.885433793E-1,1.382651478E-1,9.780912399E0,9.783706517E0
2.796944656E0,1.837549806E-1,1.286883354E-1,9.795277596E0,9.797846179E0
2.799465489E0,1.598129570E-1,1.334767491E-1,9.790489197E0,9.792703148E0
2.801986375E0,1.646013707E-1,1.382651478E-1,9.795277596E0,9.797636145E0
2.804507312E0,1.598129570E-1,1.334767491E-1,9.800065994E0,9.802277782E0
2.807028302E0,1.693897694E-1,1.478419602E-1,9.780912399E0,9.783496180E0
2.809549344E0,1.741781682E-1,1.574187577E-1,9.795277596E0,9.798090726E0
2.812070437E0,1.646013707E-1,1.526303589E-1,9.795277596E0,9.797849397E0
2.814591583E0,1.598129570E-1,1.622071713E-1,9.809642792E0,9.812285312E0
2.817112781E0,1.693897694E-1,1.526303589E-1,9.785700798E0,9.788356809E0
2.819634031E0,1.550245583E-1,1.526303589E-1,9.790489197E0,9.792905971E0
2.822155333E0,1.502361596E-1,1.430535465E-1,9.790489197E0,9.792686758E0
2.824676687E0,1.550245583E-1,1.478419602E-1,9.785700798E0,9.788045258E0
2.827198041E0,1.789665818E-1,1.382651478E-1,9.809642792E0,9.812249385E0
2.829719396E0,1.693897694E-1,1.622071713E-1,9.790489197E0,9.793297850E0
2.832240750E0,1.693897694E-1,1.526303589E-1,9.790489197E0,9.793143910E0
2.834762104E0,1.693897694E-1,1.478419602E-1,9.800065994E0,9.802644726E0
2.837283458E0,1.646013707E-1,1.526303589E-1,9.785700798E0,9.788275116E0
2.839804812E0,1.646013707E-1,1.382651478E-1,9.800065994E0,9.802423392E0
2.842326166E0,1.741781682E-1,1.382651478E-1,9.790489197E0,9.793014551E0
2.844847312E0,1.598129570E-1,1.478419602E-1,9.780912399E0,9.783335055E0
2.847368354E0,1.789665818E-1,1.478419602E-1,9.780912399E0,9.783666677E0
2.849889187E0,1.598129570E-1,1.574187577E-1,9.790489197E0,9.793058744E0
2.852409864E0,1.693897694E-1,1.478419602E-1,9.790489197E0,9.793070451E0
2.854930489E0,1.789665818E-1,1.382651478E-1,9.795277596E0,9.797888010E0
2.857451114E0,1.598129570E-1,1.478419602E-1,9.809642792E0,9.812058353E0
2.859971739E0,1.646013707E-1,1.574187577E-1,9.780912399E0,9.783563852E0
2.862492364E0,1.741781682E-1,1.430535465E-1,9.776124001E0,9.778721942E0
2.865012989E0,1.646013707E-1,1.478419602E-1,9.790489197E0,9.792988797E0
2.867533614E0,1.741781682E-1,1.334767491E-1,9.785700798E0,9.788160919E0
2.870054239E0,1.646013707E-1,1.478419602E-1,9.790489197E0,9.792988797E0
2.872574864E0,1.646013707E-1,1.669955701E-1,9.795277596E0,9.798083706E0
2.875095489E0,1.646013707E-1,1.526303589E-1,9.790489197E0,9.793062256E0
2.877616166E0,1.789665818E-1,1.526303589E-1,9.785700798E0,9.788527222E0
2.880136896E0,1.693897694E-1,1.478419602E-1,9.795277596E0,9.797857588E0
2.882657677E0,1.741781682E-1,1.622071713E-1,9.785700798E0,9.788594859E0
2.885178510E0,1.789665818E-1,1.622071713E-1,9.814431190E0,9.817402905E0
2.887699396E0,1.693897694E-1,1.526303589E-1,9.795277596E0,9.797931011E0
2.890220333E0,1.646013707E-1,1.382651478E-1,9.790489197E0,9.792848900E0
2.892741323E0,1.646013707E-1,1.478419602E-1,9.780912399E0,9.783414446E0
2.895262364E0,1.646013707E-1,1.382651478E-1,9.785700798E0,9.788061655E0
2.897783458E0,1.646013707E-1,1.334767491E-1,9.771335602E0,9.773633362E0
2.900304552E0,1.693897694E-1,1.430535465E-1,9.776124001E0,9.778637824E0
2.902825646E0,1.646013707E-1,1.574187577E-1,9.795277596E0,9.797925160E0
2.905346739E0,1.741781682E-1,1.574187577E-1,9.800065994E0,9.802877751E0
2.907867833E0,1.598129570E-1,1.430535465E-1,9.809642792E0,9.811987373E0
2.910388927E0,1.646013707E-1,1.334767491E-1,9.790489197E0,9.792782463E0
2.912910021E0,1.837549806E-1,1.430535465E-1,9.780912399E0,9.783684254E0
2.915431114E0,1.789665818E-1,1.478419602E-1,9.780912399E0,9.783666677E0
2.917952208E0,1.741781682E-1,1.430535465E-1,9.780912399E0,9.783509070E0
2.920473302E0,1.741781682E-1,1.526303589E-1,9.795277596E0,9.798014964E0
2.922994396E0,1.646013707E-1,1.430535465E-1,9.804854393E0,9.807279317E0
2.925515489E0,1.646013707E-1,1.526303589E-1,9.795277596E0,9.797849397E0
2.928036583E0,1.693897694E-1,1.478419602E-1,9.800065994E0,9.802644726E0
2.930557677E0,1.646013707E-1,1.430535465E-1,9.800065994E0,9.802492103E0
2.933078771E0,1.693897694E-1,1.382651478E-1,9.785700798E0,9.788143351E0
2.935599760E0,1.789665818E-1,1.382651478E-1,9.780912399E0,9.783526647E0
2.938120385E0,1.837549806E-1,1.334767491E-1,9.780912399E0,9.783548911E0
2.940641010E0,1.789665818E-1,1.382651478E-1,9.790489197E0,9.793100888E0
2.943161635E0,1.693897694E-1,1.334767491E-1,9.795277596E0,9.797651357E0
2.945682260E0,1.693897694E-1,1.478419602E-1,9.804854393E0,9.807431866E0
2.948202885E0,1.693897694E-1,1.382651478E-1,9.785700798E0,9.788143351E0
2.950723510E0,1.646013707E-1,1.526303589E-1,9.776124001E0,9.778700840E0
2.953244187E0,1.885433793E-1,1.334767491E-1,9.780912399E0,9.783640018E0
2.955764916E0,1.789665818E-1,1.334767491E-1,9.795277596E0,9.797821608E0
2.958285698E0,1.789665818E-1,1.478419602E-1,9.809642792E0,9.812389005E0
2.960806531E0,1.646013707E-1,1.574187577E-1,9.780912399E0,9.783563852E0
2.963327416E0,1.598129570E-1,1.526303589E-1,9.800065994E0,9.802557304E0
2.965848354E0,1.741781682E-1,1.478419602E-1,9.776124001E0,9.778793164E0
2.968369344E0,1.789665818E-1,1.478419602E-1,9.785700798E0,9.788453728E0
2.970890385E0,1.789665818E-1,1.430535465E-1,9.785700798E0,9.788382576E0
2.973411479E0,1.693897694E-1,1.526303589E-1,9.795277596E0,9.797931011E0
2.975932625E0,1.693897694E-1,1.478419602E-1,9.804854393E0,9.807431866E0
2.978453823E0,1.646013707E-1,1.478419602E-1,9.800065994E0,9.802563152E0
2.980975073E0,1.550245583E-1,1.574187577E-1,9.795277596E0,9.797768953E0
2.983496323E0,1.789665818E-1,1.622071713E-1,9.780912399E0,9.783894295E0
2.986017573E0,1.598129570E-1,1.574187577E-1,9.780912399E0,9.783484462E0
2.988538771E0,1.598129570E-1,1.430535465E-1,9.785700798E0,9.788051114E0
2.991059291E0,1.550245583E-1,1.382651478E-1,9.785700798E0,9.787905290E0
2.993579812E0,1.646013707E-1,1.526303589E-1,9.800065994E0,9.802636540E0
2.996100333E0,1.598129570E-1,1.574187577E-1,9.804854393E0,9.807420176E0
2.998620854E0,1.598129570E-1,1.430535465E-1,9.800065994E0,9.802412866E0
3.001141375E0,1.646013707E-1,1.574187577E-1,9.800065994E0,9.802712266E0
3.003661896E0,1.789665818E-1,1.430535465E-1,9.804854393E0,9.807530934E0
3.006182416E0,1.693897694E-1,1.286883354E-1,9.776124001E0,9.778438222E0
3.008702989E0,1.598129570E-1,1.382651478E-1,9.785700798E0,9.787982302E0
3.011223614E0,1.646013707E-1,1.526303589E-1,9.800065994E0,9.802636540E0
3.013744344E0,1.646013707E-1,1.574187577E-1,9.780912399E0,9.783563852E0
3.016265125E0,1.693897694E-1,1.526303589E-1,9.795277596E0,9.797931011E0
3.018785958E0,1.741781682E-1,1.478419602E-1,9.795277596E0,9.797941542E0
3.021306844E0,1.598129570E-1,1.478419602E-1,9.795277596E0,9.797696699E0
3.023827781E0,1.741781682E-1,1.574187577E-1,9.800065994E0,9.802877751E0
3.026348719E0,1.646013707E-1,1.478419602E-1,9.800065994E0,9.802563152E0
3.028869708E0,1.598129570E-1,1.478419602E-1,9.800065994E0,9.802483916E0
3.031390698E0,1.693897694E-1,1.478419602E-1,9.795277596E0,9.797857588E0
3.033911739E0,1.693897694E-1,1.382651478E-1,9.790489197E0,9.792930555E0
3.036432781E0,1.598129570E-1,1.430535465E-1,9.795277596E0,9.797625614E0
3.038953823E0,1.550245583E-1,1.430535465E-1,9.800065994E0,9.802335968E0
3.041474864E0,1.837549806E-1,1.478419602E-1,9.795277596E0,9.798116468E0
3.043995906E0,1.885433793E-1,1.478419602E-1,9.776124001E0,9.779059583E0
3.046516948E0,1.693897694E-1,1.478419602E-1,9.795277596E0,9.797857588E0
3.049037885E0,1.741781682E-1,1.334767491E-1,9.790489197E0,9.792948115E0
3.051558823E0,1.885433793E-1,1.430535465E-1,9.776124001E0,9.778988363E0
3.054079760E0,1.885433793E-1,1.478419602E-1,9.790489197E0,9.793420473E0
3.056600698E0,1.646013707E-1,1.478419602E-1,9.814431190E0,9.816924694E0
3.059121635E0,1.693897694E-1,1.382651478E-1,9.804854393E0,9.807292175E0
3.061642573E0,1.646013707E-1,1.286883354E-1,9.795277596E0,9.797505676E0
3.064163510E0,1.693897694E-1,1.286883354E-1,9.785700798E0,9.788012755E0
3.066684500E0,1.693897694E-1,1.430535465E-1,9.790489197E0,9.792999332E0
3.069205541E0,1.789665818E-1,1.669955701E-1,9.804854393E0,9.807909371E0
3.071726635E0,1.789665818E-1,1.478419602E-1,9.800065994E0,9.802814890E0
3.074247781E0,1.837549806E-1,1.430535465E-1,9.800065994E0,9.802832433E0
3.076768979E0,1.789665818E-1,1.430535465E-1,9.795277596E0,9.797956753E0
3.079290229E0,1.837549806E-1,1.238999367E-1,9.795277596E0,9.797784457E0
3.081811531E0,1.598129570E-1,1.286883354E-1,9.780912399E0,9.783064358E0
3.084332833E0,1.789665818E-1,1.238999367E-1,9.800065994E0,9.802483039E0
3.086854135E0,1.693897694E-1,1.238999367E-1,9.800065994E0,9.802312869E0
3.089375437E0,1.646013707E-1,1.334767491E-1,9.814431190E0,9.816718864E0
3.091896739E0,1.646013707E-1,1.286883354E-1,9.785700798E0,9.787931059E0
3.094418041E0,1.837549806E-1,1.334767491E-1,9.780912399E0,9.783548911E0
3.096939344E0,1.789665818E-1,1.382651478E-1,9.776124001E0,9.778739528E0
3.099460646E0,1.837549806E-1,1.478419602E-1,9.795277596E0,9.798116468E0
3.101981948E0,1.789665818E-1,1.478419602E-1,9.780912399E0,9.783666677E0
3.104503198E0,1.741781682E-1,1.478419602E-1,9.795277596E0,9.797941542E0
3.107024239E0,1.741781682E-1,1.430535465E-1,9.804854393E0,9.807444724E0
3.109545281E0,1.693897694E-1,1.334767491E-1,9.790489197E0,9.792864119E0
3.112066271E0,1.454477459E-1,1.334767491E-1,9.800065994E0,9.802054100E0
3.114587052E0,1.502361596E-1,1.382651478E-1,9.785700798E0,9.787830621E0
3.117107833E0,1.454477459E-1,1.430535465E-1,9.771335602E0,9.773465036E0
3.119628614E0,1.550245583E-1,1.382651478E-1,9.790489197E0,9.792692611E0
3.122149448E0,1.693897694E-1,1.382651478E-1,9.790489197E0,9.792930555E0
3.124670333E0,1.741781682E-1,1.382651478E-1,9.785700798E0,9.788227388E0
3.127191271E0,1.837549806E-1,1.478419602E-1,9.790489197E0,9.793329457E0
3.129712260E0,1.741781682E-1,1.478419602E-1,9.795277596E0,9.797941542E0
3.132233302E0,1.789665818E-1,1.334767491E-1,9.795277596E0,9.797821608E0
3.134754396E0,1.646013707E-1,1.334767491E-1,9.800065994E0,9.802357020E0
3.137275541E0,1.454477459E-1,1.430535465E-1,9.785700798E0,9.787827107E0
3.139796739E0,1.454477459E-1,1.430535465E-1,9.780912399E0,9.783039749E0
3.142317989E0,1.646013707E-1,1.382651478E-1,9.771335602E0,9.773699929E0
3.144839291E0,1.741781682E-1,1.430535465E-1,9.771335602E0,9.773934816E0
3.147360646E0,1.741781682E-1,1.574187577E-1,9.780912399E0,9.783729660E0
3.149882052E0,1.598129570E-1,1.574187577E-1,9.780912399E0,9.783484462E0
3.152403458E0,1.789665818E-1,1.478419602E-1,9.804854393E0,9.807601947E0
3.154924864E0,1.837549806E-1,1.478419602E-1,9.804854393E0,9.807690493E0
3.157445854E0,1.789665818E-1,1.430535465E-1,9.804854393E0,9.807530934E0
3.159966583E0,1.693897694E-1,1.478419602E-1,9.785700798E0,9.788283315E0
3.162487260E0,1.646013707E-1,1.430535465E-1,9.795277596E0,9.797704889E0
3.165007937E0,1.693897694E-1,1.430535465E-1,9.790489197E0,9.792999332E0
3.167528614E0,1.693897694E-1,1.478419602E-1,9.795277596E0,9.797857588E0
3.170049291E0,1.646013707E-1,1.574187577E-1,9.790489197E0,9.793138056E0
3.172569969E0,1.789665818E-1,1.574187577E-1,9.800065994E0,9.802964000E0
3.175090646E0,1.741781682E-1,1.526303589E-1,9.795277596E0,9.798014964E0
3.177611375E0,1.741781682E-1,1.478419602E-1,9.790489197E0,9.793154445E0
3.180132156E0,1.885433793E-1,1.574187577E-1,9.780912399E0,9.783995944E0
3.182652937E0,1.646013707E-1,1.430535465E-1,9.780912399E0,9.783343257E0
3.185173719E0,1.598129570E-1,1.478419602E-1,9.785700798E0,9.788122268E0
3.187694500E0,1.693897694E-1,1.382651478E-1,9.780912399E0,9.783356147E0
3.190215281E0,1.646013707E-1,1.430535465E-1,9.790489197E0,9.792917678E0
3.192736062E0,1.693897694E-1,1.526303589E-1,9.785700798E0,9.788356809E0
3.195256844E0,1.741781682E-1,1.622071713E-1,9.795277596E0,9.798168828E0
3.197777625E0,1.837549806E-1,1.574187577E-1,9.795277596E0,9.798265649E0
3.200298406E0,1.741781682E-1,1.526303589E-1,9.790489197E0,9.793227904E0
3.202819187E0,1.646013707E-1,1.622071713E-1,9.790489197E0,9.793216197E0
3.205339969E0,1.646013707E-1,1.669955701E-1,9.785700798E0,9.788509654E0
3.207860750E0,1.741781682E-1,1.478419602E-1,9.800065994E0,9.802728639E0
3.210381531E0,1.693897694E-1,1.622071713E-1,9.785700798E0,9.788510825E0
3.212902312E0,1.646013707E-1,1.669955701E-1,9.800065994E0,9.802870734E0
3.215422937E0,1.646013707E-1,1.478419602E-1,9.790489197E0,9.792988797E0
3.217943510E0,1.646013707E-1,1.430535465E-1,9.785700798E0,9.788130467E0
3.220464083E0,1.646013707E-1,1.622071713E-1,9.785700798E0,9.788429133E0
3.222984656E0,1.502361596E-1,1.286883354E-1,9.785700798E0,9.787700021E0
3.225505229E0,1.598129570E-1,1.430535465E-1,9.780912399E0,9.783263865E0
3.228025802E0,1.693897694E-1,1.430535465E-1,9.776124001E0,9.778637824E0
3.230546375E0,1.741781682E-1,1.526303589E-1,9.790489197E0,9.793227904E0
3.233066948E0,1.789665818E-1,1.478419602E-1,9.790489197E0,9.793240781E0
3.235587521E0,1.693897694E-1,1.382651478E-1,9.800065994E0,9.802504967E0
3.238108094E0,1.789665818E-1,1.430535465E-1,9.804854393E0,9.807530934E0
3.240628666E0,1.741781682E-1,1.574187577E-1,9.804854393E0,9.807664776E0
3.243149239E0,1.693897694E-1,1.430535465E-1,9.785700798E0,9.788212162E0
3.245669864E0,1.789665818E-1,1.382651478E-1,9.795277596E0,9.797888010E0
3.248190541E0,1.741781682E-1,1.526303589E-1,9.800065994E0,9.802802026E0
3.250711271E0,1.550245583E-1,1.622071713E-1,9.790489197E0,9.793059915E0
3.253232052E0,1.598129570E-1,1.526303589E-1,9.780912399E0,9.783408586E0
3.255752885E0,1.646013707E-1,1.430535465E-1,9.800065994E0,9.802492103E0
3.258273771E0,1.693897694E-1,1.526303589E-1,9.780912399E0,9.783569711E0
3.260794708E0,1.789665818E-1,1.669955701E-1,9.790489197E0,9.793548656E0
3.263315698E0,1.741781682E-1,1.526303589E-1,9.785700798E0,9.788440845E0
3.265836739E0,1.789665818E-1,1.526303589E-1,9.785700798E0,9.788527222E0
3.268357833E0,1.789665818E-1,1.574187577E-1,9.790489197E0,9.793390037E0
3.270878927E0,1.837549806E-1,1.478419602E-1,9.771335602E0,9.774181428E0
3.273400021E0,1.598129570E-1,1.478419602E-1,9.780912399E0,9.783335055E0
3.275921114E0,1.598129570E-1,1.622071713E-1,9.804854393E0,9.807498204E0
3.278442208E0,1.741781682E-1,1.574187577E-1,9.809642792E0,9.812451804E0
3.280963302E0,1.741781682E-1,1.478419602E-1,9.785700798E0,9.788367350E0
3.283484396E0,1.885433793E-1,1.382651478E-1,9.771335602E0,9.774132458E0
3.286005489E0,1.741781682E-1,1.334767491E-1,9.766547203E0,9.769012148E0
3.288526583E0,1.693897694E-1,1.430535465E-1,9.780912399E0,9.783424992E0
3.291047677E0,1.693897694E-1,1.574187577E-1,9.790489197E0,9.793219709E0
3.293568771E0,1.646013707E-1,1.382651478E-1,9.800065994E0,9.802423392E0
3.296089864E0,1.741781682E-1,1.526303589E-1,9.809642792E0,9.812376153E0
3.298610958E0,1.789665818E-1,1.526303589E-1,9.800065994E0,9.802888276E0
3.301132052E0,1.646013707E-1,1.382651478E-1,9.809642792E0,9.811997889E0
3.303652937E0,1.598129570E-1,1.334767491E-1,9.800065994E0,9.802277782E0
3.306173823E0,1.598129570E-1,1.478419602E-1,9.785700798E0,9.788122268E0
3.308694708E0,1.550245583E-1,1.430535465E-1,9.785700798E0,9.787974103E0
3.311215594E0,1.693897694E-1,1.478419602E-1,9.776124001E0,9.778709046E0
3.313736479E0,1.789665818E-1,1.526303589E-1,9.780912399E0,9.783740206E0
3.316257364E0,1.837549806E-1,1.430535465E-1,9.785700798E0,9.788471296E0
3.318778250E0,1.693897694E-1,1.478419602E-1,9.790489197E0,9.793070451E0
3.321299135E0,1.741781682E-1,1.478419602E-1,9.800065994E0,9.802728639E0
3.323820021E0,1.646013707E-1,1.430535465E-1,9.790489197E0,9.792917678E0
3.326340906E0,1.646013707E-1,1.382651478E-1,9.800065994E0,9.802423392E0
3.328861791E0,1.502361596E-1,1.478419602E-1,9.809642792E0,9.811907045E0
3.331382677E0,1.598129570E-1,1.478419602E-1,9.814431190E0,9.816845574E0
3.333903562E0,1.789665818E-1,1.526303589E-1,9.795277596E0,9.798101257E0
3.336424448E0,1.598129570E-1,1.478419602E-1,9.795277596E0,9.797696699E0
3.338945333E0,1.646013707E-1,1.430535465E-1,9.785700798E0,9.788130467E0
3.341466219E0,1.550245583E-1,1.526303589E-1,9.790489197E0,9.792905971E0
3.343987104E0,1.741781682E-1,1.382651478E-1,9.804854393E0,9.807376048E0
3.346507989E0,1.646013707E-1,1.622071713E-1,9.790489197E0,9.793216197E0
3.349028927E0,1.646013707E-1,1.574187577E-1,9.800065994E0,9.802712266E0
3.351549916E0,1.550245583E-1,1.526303589E-1,9.785700798E0,9.788118754E0
3.354070958E0,1.598129570E-1,1.430535465E-1,9.790489197E0,9.792838363E0
3.356592052E0,1.598129570E-1,1.334767491E-1,9.800065994E0,9.802277782E0
3.359113198E0,1.502361596E-1,1.382651478E-1,9.790489197E0,9.792617978E0
3.361634396E0,1.741781682E-1,1.478419602E-1,9.776124001E0,9.778793164E0
3.364155646E0,1.693897694E-1,1.574187577E-1,9.790489197E0,9.793219709E0
3.366676896E0,1.693897694E-1,1.622071713E-1,9.795277596E0,9.798084876E0
3.369198146E0,1.837549806E-1,1.622071713E-1,9.795277596E0,9.798343749E0
3.371719396E0,1.741781682E-1,1.669955701E-1,9.795277596E0,9.798249269E0
3.374240646E0,1.646013707E-1,1.430535465E-1,9.790489197E0,9.792917678E0
3.376761896E0,1.789665818E-1,1.574187577E-1,9.785700798E0,9.788603057E0
3.379283146E0,1.646013707E-1,1.382651478E-1,9.795277596E0,9.797636145E0
3.381804396E0,1.789665818E-1,1.478419602E-1,9.790489197E0,9.793240781E0
3.384325281E0,1.789665818E-1,1.430535465E-1,9.795277596E0,9.797956753E0
3.386846166E0,1.789665818E-1,1.478419602E-1,9.790489197E0,9.793240781E0
3.389366896E0,1.646013707E-1,1.334767491E-1,9.780912399E0,9.783207910E0
3.391887625E0,1.598129570E-1,1.526303589E-1,9.795277596E0,9.797770123E0
3.394408354E0,1.693897694E-1,1.478419602E-1,9.780912399E0,9.783496180E0
3.396929083E0,1.789665818E-1,1.382651478E-1,9.800065994E0,9.802675134E0
3.399449812E0,1.837549806E-1,1.382651478E-1,9.804854393E0,9.807550806E0
3.401970541E0,1.741781682E-1,1.430535465E-1,9.790489197E0,9.793083328E0
3.404491271E0,1.693897694E-1,1.334767491E-1,9.800065994E0,9.802438596E0
3.407012000E0,1.741781682E-1,1.382651478E-1,9.814431190E0,9.816950386E0
3.409532781E0,1.741781682E-1,1.526303589E-1,9.819219589E0,9.821950285E0
3.412053614E0,1.837549806E-1,1.478419602E-1,9.785700798E0,9.788542448E0
3.414574500E0,1.741781682E-1,1.286883354E-1,9.785700798E0,9.788096793E0
3.417095437E0,1.550245583E-1,1.382651478E-1,9.795277596E0,9.797479933E0
3.419616427E0,1.646013707E-1,1.238999367E-1,9.790489197E0,9.792656612E0
3.422137469E0,1.789665818E-1,1.574187577E-1,9.790489197E0,9.793390037E0
3.424658510E0,1.789665818E-1,1.574187577E-1,9.800065994E0,9.802964000E0
3.427179552E0,1.693897694E-1,1.334767491E-1,9.790489197E0,9.792864119E0
3.429700594E0,1.741781682E-1,1.574187577E-1,9.790489197E0,9.793303703E0
3.432221635E0,1.741781682E-1,1.574187577E-1,9.785700798E0,9.788516681E0
3.434742677E0,1.693897694E-1,1.526303589E-1,9.795277596E0,9.797931011E0
3.437263562E0,1.550245583E-1,1.478419602E-1,9.785700798E0,9.788045258E0
3.439784396E0,1.502361596E-1,1.430535465E-1,9.795277596E0,9.797474082E0
3.442305229E0,1.646013707E-1,1.574187577E-1,9.804854393E0,9.807499373E0
3.444825750E0,1.598129570E-1,1.526303589E-1,9.800065994E0,9.802557304E0
3.447346271E0,1.646013707E-1,1.238999367E-1,9.790489197E0,9.792656612E0
3.449866791E0,1.598129570E-1,1.382651478E-1,9.766547203E0,9.768833180E0
3.452387364E0,1.646013707E-1,1.478419602E-1,9.776124001E0,9.778627272E0
3.454907989E0,1.646013707E-1,1.526303589E-1,9.776124001E0,9.778700840E0
3.457428666E0,1.550245583E-1,1.382651478E-1,9.785700798E0,9.787905290E0
3.459949396E0,1.646013707E-1,1.334767491E-1,9.800065994E0,9.802357020E0
3.462470177E0,1.789665818E-1,1.334767491E-1,9.795277596E0,9.797821608E0
3.464991010E0,1.693897694E-1,1.574187577E-1,9.790489197E0,9.793219709E0
3.467511896E0,1.693897694E-1,1.622071713E-1,9.795277596E0,9.798084876E0
3.470032833E0,1.646013707E-1,1.382651478E-1,9.804854393E0,9.807210640E0
3.472553771E0,1.741781682E-1,1.334767491E-1,9.804854393E0,9.807309710E0
3.475074708E0,1.741781682E-1,1.191115379E-1,9.785700798E0,9.787975567E0
3.477595646E0,1.646013707E-1,1.478419602E-1,9.780912399E0,9.783414446E0
3.480116583E0,1.646013707E-1,1.478419602E-1,9.785700798E0,9.788201621E0
3.482637573E0,1.741781682E-1,1.430535465E-1,9.780912399E0,9.783509070E0
3.485158614E0,1.693897694E-1,1.286883354E-1,9.790489197E0,9.792800023E0
3.487679708E0,1.741781682E-1,1.478419602E-1,9.795277596E0,9.797941542E0
3.490200854E0,1.789665818E-1,1.478419602E-1,9.800065994E0,9.802814890E0
3.492722052E0,1.646013707E-1,1.334767491E-1,9.790489197E0,9.792782463E0
3.495243302E0,1.693897694E-1,1.430535465E-1,9.804854393E0,9.807360852E0
3.497764604E0,1.550245583E-1,1.382651478E-1,9.790489197E0,9.792692611E0
3.500285906E0,1.646013707E-1,1.574187577E-1,9.785700798E0,9.788350953E0
3.502807208E0,1.741781682E-1,1.574187577E-1,9.790489197E0,9.793303703E0
3.505328510E0,1.789665818E-1,1.574187577E-1,9.795277596E0,9.798177018E0
3.507849812E0,1.837549806E-1,1.334767491E-1,9.804854393E0,9.807484469E0
3.510371114E0,1.789665818E-1,1.334767491E-1,9.795277596E0,9.797821608E0
3.512892416E0,1.646013707E-1,1.382651478E-1,9.771335602E0,9.773699929E0
3.515413719E0,1.741781682E-1,1.382651478E-1,9.790489197E0,9.793014551E0
3.517935021E0,1.837549806E-1,1.526303589E-1,9.790489197E0,9.793402914E0
3.520456323E0,1.550245583E-1,1.382651478E-1,9.780912399E0,9.783117971E0
3.522977625E0,1.646013707E-1,1.478419602E-1,9.771335602E0,9.773840100E0
3.525498666E0,1.646013707E-1,1.574187577E-1,9.790489197E0,9.793138056E0
3.528019344E0,1.550245583E-1,1.478419602E-1,9.790489197E0,9.792832510E0
3.530540021E0,1.598129570E-1,1.526303589E-1,9.780912399E0,9.783408586E0
3.533060698E0,1.693897694E-1,1.574187577E-1,9.771335602E0,9.774071465E0
3.535581375E0,1.693897694E-1,1.526303589E-1,9.766547203E0,9.769208422E0
3.538102052E0,1.741781682E-1,1.526303589E-1,9.785700798E0,9.788440845E0
3.540622729E0,1.550245583E-1,1.526303589E-1,9.795277596E0,9.797693188E0
3.543143458E0,1.741781682E-1,1.382651478E-1,9.809642792E0,9.812163216E0
3.545664239E0,1.837549806E-1,1.574187577E-1,9.785700798E0,9.788691775E0
3.548185073E0,1.789665818E-1,1.574187577E-1,9.795277596E0,9.798177018E0
3.550705958E0,1.741781682E-1,1.574187577E-1,9.776124001E0,9.778942641E0
3.553226896E0,1.646013707E-1,1.574187577E-1,9.780912399E0,9.783563852E0
3.555747885E0,1.789665818E-1,1.574187577E-1,9.790489197E0,9.793390037E0
3.558268927E0,1.837549806E-1,1.478419602E-1,9.809642792E0,9.812477508E0
3.560790021E0,1.741781682E-1,1.478419602E-1,9.795277596E0,9.797941542E0
3.563311166E0,1.741781682E-1,1.430535465E-1,9.780912399E0,9.783509070E0
3.565832364E0,1.837549806E-1,1.478419602E-1,9.780912399E0,9.783755440E0
3.568353614E0,1.693897694E-1,1.526303589E-1,9.795277596E0,9.797931011E0
3.570874864E0,1.693897694E-1,1.382651478E-1,9.800065994E0,9.802504967E0
3.573396114E0,1.646013707E-1,1.430535465E-1,9.790489197E0,9.792917678E0
3.575917364E0,1.598129570E-1,1.430535465E-1,9.795277596E0,9.797625614E0
3.578438614E0,1.550245583E-1,1.478419602E-1,9.795277596E0,9.797619764E0
3.580959396E0,1.789665818E-1,1.526303589E-1,9.800065994E0,9.802888276E0
3.583480177E0,1.598129570E-1,1.526303589E-1,9.780912399E0,9.783408586E0
3.586000958E0,1.693897694E-1,1.574187577E-1,9.790489197E0,9.793219709E0
3.588521739E0,1.741781682E-1,1.382651478E-1,9.790489197E0,9.793014551E0
3.591042521E0,1.741781682E-1,1.478419602E-1,9.800065994E0,9.802728639E0
3.593563302E0,1.693897694E-1,1.574187577E-1,9.790489197E0,9.793219709E0
3.596084083E0,1.550245583E-1,1.526303589E-1,9.785700798E0,9.788118754E0
3.598604864E0,1.502361596E-1,1.478419602E-1,9.776124001E0,9.778396015E0
3.601125646E0,1.789665818E-1,1.430535465E-1,9.800065994E0,9.802743843E0
3.603646427E0,1.837549806E-1,1.382651478E-1,9.809642792E0,9.812337889E0
3.606167208E0,1.646013707E-1,1.478419602E-1,9.771335602E0,9.773840100E0
3.608687989E0,1.741781682E-1,1.478419602E-1,9.780912399E0,9.783580257E0
3.611208771E0,1.789665818E-1,1.430535465E-1,9.780912399E0,9.783595490E0
3.613729552E0,1.693897694E-1,1.526303589E-1,9.776124001E0,9.778782613E0
3.616250333E0,1.693897694E-1,1.382651478E-1,9.785700798E0,9.788143351E0
3.618771114E0,1.646013707E-1,1.382651478E-1,9.800065994E0,9.802423392E0
3.621291948E0,1.741781682E-1,1.526303589E-1,9.804854393E0,9.807589088E0
3.623812781E0,1.741781682E-1,1.526303589E-1,9.800065994E0,9.802802026E0
3.626333614E0,1.741781682E-1,1.382651478E-1,9.795277596E0,9.797801716E0
3.628854448E0,1.550245583E-1,1.526303589E-1,9.790489197E0,9.792905971E0
3.631375333E0,1.693897694E-1,1.669955701E-1,9.785700798E0,9.788591345E0
3.633896219E0,1.598129570E-1,1.526303589E-1,9.804854393E0,9.807344486E0
3.636417104E0,1.646013707E-1,1.478419602E-1,9.800065994E0,9.802563152E0
3.638937989E0,1.789665818E-1,1.478419602E-1,9.790489197E0,9.793240781E0
3.641458927E0,1.837549806E-1,1.478419602E-1,9.795277596E0,9.798116468E0
3.643979916E0,1.837549806E-1,1.478419602E-1,9.790489197E0,9.793329457E0
3.646500958E0,1.837549806E-1,1.526303589E-1,9.785700798E0,9.788615940E0
3.649022000E0,1.693897694E-1,1.574187577E-1,9.804854393E0,9.807580906E0
3.651543041E0,1.646013707E-1,1.574187577E-1,9.790489197E0,9.793138056E0
3.654064083E0,1.837549806E-1,1.478419602E-1,9.800065994E0,9.802903480E0
3.656585125E0,1.885433793E-1,1.526303589E-1,9.785700798E0,9.788707000E0
3.659106166E0,1.693897694E-1,1.717839688E-1,9.785700798E0,9.788674207E0
3.661627260E0,1.789665818E-1,1.622071713E-1,9.780912399E0,9.783894295E0
3.664148406E0,1.741781682E-1,1.430535465E-1,9.790489197E0,9.793083328E0
3.666669604E0,1.646013707E-1,1.526303589E-1,9.776124001E0,9.778700840E0
3.669190854E0,1.646013707E-1,1.622071713E-1,9.790489197E0,9.793216197E0
3.671712104E0,1.502361596E-1,1.574187577E-1,9.785700798E0,9.788119926E0
3.674233354E0,1.550245583E-1,1.526303589E-1,9.790489197E0,9.792905971E0
3.676754604E0,1.598129570E-1,1.430535465E-1,9.780912399E0,9.783263865E0
3.679275854E0,1.789665818E-1,1.478419602E-1,9.780912399E0,9.783666677E0
3.681797052E0,1.598129570E-1,1.526303589E-1,9.771335602E0,9.773834235E0
3.684317989E0,1.646013707E-1,1.478419602E-1,9.780912399E0,9.783414446E0
3.686838875E0,1.741781682E-1,1.286883354E-1,9.776124001E0,9.778522342E0
3.689359656E0,1.693897694E-1,1.334767491E-1,9.780912399E0,9.783289646E0
3.691880437E0,1.646013707E-1,1.430535465E-1,9.790489197E0,9.792917678E0
3.694401219E0,1.598129570E-1,1.430535465E-1,9.800065994E0,9.802412866E0
3.696922000E0,1.789665818E-1,1.478419602E-1,9.771335602E0,9.774092578E0
3.699442781E0,1.741781682E-1,1.478419602E-1,9.771335602E0,9.774006073E0
3.701963614E0,1.550245583E-1,1.430535465E-1,9.795277596E0,9.797548678E0
3.704484500E0,1.550245583E-1,1.382651478E-1,9.795277596E0,9.797479933E0
3.707005437E0,1.741781682E-1,1.334767491E-1,9.785700798E0,9.788160919E0
3.709526427E0,1.789665818E-1,1.622071713E-1,9.804854393E0,9.807829009E0
3.712047469E0,1.646013707E-1,1.478419602E-1,9.795277596E0,9.797775974E0
3.714568562E0,1.693897694E-1,1.526303589E-1,9.776124001E0,9.778782613E0
3.717089656E0,1.598129570E-1,1.430535465E-1,9.795277596E0,9.797625614E0
3.719610750E0,1.693897694E-1,1.238999367E-1,9.795277596E0,9.797525568E0
3.722131844E0,1.646013707E-1,1.382651478E-1,9.814431190E0,9.816785138E0
3.724652937E0,1.789665818E-1,1.478419602E-1,9.795277596E0,9.798027835E0
3.727173979E0,1.741781682E-1,1.478419602E-1,9.809642792E0,9.812302838E0
3.729694708E0,1.837549806E-1,1.526303589E-1,9.795277596E0,9.798189889E0
3.732215333E0,1.741781682E-1,1.478419602E-1,9.804854393E0,9.807515738E0
3.734735958E0,1.741781682E-1,1.478419602E-1,9.804854393E0,9.807515738E0
3.737256583E0,1.837549806E-1,1.574187577E-1,9.795277596E0,9.798265649E0
3.739777208E0,1.693897694E-1,1.622071713E-1,9.795277596E0,9.798084876E0
3.742297833E0,1.550245583E-1,1.430535465E-1,9.780912399E0,9.783186817E0
3.744818510E0,1.646013707E-1,1.430535465E-1,9.776124001E0,9.778556049E0
3.747339239E0,1.598129570E-1,1.526303589E-1,9.780912399E0,9.783408586E0
3.749860021E0,1.693897694E-1,1.526303589E-1,9.785700798E0,9.788356809E0
3.752380906E0,1.885433793E-1,1.478419602E-1,9.785700798E0,9.788633508E0
3.754901896E0,1.789665818E-1,1.478419602E-1,9.795277596E0,9.798027835E0
3.757422989E0,1.502361596E-1,1.430535465E-1,9.804854393E0,9.807048735E0
3.759944187E0,1.598129570E-1,1.478419602E-1,9.800065994E0,9.802483916E0
3.762465489E0,1.837549806E-1,1.526303589E-1,9.800065994E0,9.802976865E0
3.764986844E0,1.885433793E-1,1.526303589E-1,9.795277596E0,9.798280860E0
3.767508250E0,1.837549806E-1,1.478419602E-1,9.776124001E0,9.778968433E0
3.770029656E0,1.837549806E-1,1.526303589E-1,9.780912399E0,9.783828968E0
3.772551062E0,1.693897694E-1,1.526303589E-1,9.795277596E0,9.797931011E0
3.775072469E0,1.789665818E-1,1.478419602E-1,9.790489197E0,9.793240781E0
3.777593666E0,1.789665818E-1,1.526303589E-1,9.790489197E0,9.793314239E0
3.780114864E0,1.646013707E-1,1.382651478E-1,9.795277596E0,9.797636145E0
3.782635854E0,1.741781682E-1,1.382651478E-1,9.795277596E0,9.797801716E0
3.785156739E0,1.693897694E-1,1.334767491E-1,9.790489197E0,9.792864119E0
3.787677625E0,1.646013707E-1,1.622071713E-1,9.800065994E0,9.802790331E0
3.790198510E0,1.646013707E-1,1.526303589E-1,9.780912399E0,9.783487977E0
3.792719396E0,1.741781682E-1,1.382651478E-1,9.771335602E0,9.773865905E0
3.795240281E0,1.598129570E-1,1.478419602E-1,9.771335602E0,9.773760631E0
3.797761166E0,1.502361596E-1,1.526303589E-1,9.790489197E0,9.792831339E0
3.800282052E0,1.646013707E-1,1.334767491E-1,9.795277596E0,9.797569741E0
3.802802937E0,1.741781682E-1,1.334767491E-1,9.795277596E0,9.797735312E0
3.805323823E0,1.693897694E-1,1.430535465E-1,9.795277596E0,9.797786504E0
3.807844760E0,1.741781682E-1,1.334767491E-1,9.780912399E0,9.783373725E0
3.810365750E0,1.598129570E-1,1.430535465E-1,9.776124001E0,9.778476618E0
3.812886791E0,1.789665818E-1,1.382651478E-1,9.800065994E0,9.802675134E0
3.815407885E0,1.741781682E-1,1.526303589E-1,9.800065994E0,9.802802026E0
3.817928979E0,1.693897694E-1,1.478419602E-1,9.790489197E0,9.793070451E0
3.820450073E0,1.789665818E-1,1.478419602E-1,9.780912399E0,9.783666677E0
3.822971166E0,1.837549806E-1,1.526303589E-1,9.785700798E0,9.788615940E0
3.825492260E0,1.837549806E-1,1.478419602E-1,9.804854393E0,9.807690493E0
3.828013354E0,1.789665818E-1,1.430535465E-1,9.795277596E0,9.797956753E0
3.830534448E0,1.741781682E-1,1.430535465E-1,9.795277596E0,9.797870459E0
3.833055541E0,1.693897694E-1,1.574187577E-1,9.790489197E0,9.793219709E0
3.835576635E0,1.741781682E-1,1.382651478E-1,9.795277596E0,9.797801716E0
3.838097729E0,1.837549806E-1,1.478419602E-1,9.780912399E0,9.783755440E0
3.840618823E0,1.646013707E-1,1.430535465E-1,9.804854393E0,9.807279317E0
3.843139916E0,1.598129570E-1,1.382651478E-1,9.800065994E0,9.802344155E0
3.845661010E0,1.646013707E-1,1.382651478E-1,9.795277596E0,9.797636145E0
3.848181844E0,1.646013707E-1,1.478419602E-1,9.785700798E0,9.788201621E0
3.850702416E0,1.741781682E-1,1.526303589E-1,9.780912399E0,9.783653787E0
3.853222989E0,1.741781682E-1,1.526303589E-1,9.776124001E0,9.778866731E0
3.855743562E0,1.598129570E-1,1.526303589E-1,9.795277596E0,9.797770123E0
3.858264135E0,1.502361596E-1,1.478419602E-1,9.790489197E0,9.792757878E0
3.860784708E0,1.550245583E-1,1.478419602E-1,9.790489197E0,9.792832510E0
3.863305281E0,1.550245583E-1,1.382651478E-1,9.795277596E0,9.797479933E0
3.865825854E0,1.502361596E-1,1.334767491E-1,9.776124001E0,9.778189373E0
3.868346427E0,1.693897694E-1,1.430535465E-1,9.795277596E0,9.797786504E0
3.870867000E0,1.646013707E-1,1.574187577E-1,9.795277596E0,9.797925160E0
3.873387573E0,1.837549806E-1,1.574187577E-1,9.790489197E0,9.793478711E0
3.875908146E0,1.789665818E-1,1.574187577E-1,9.800065994E0,9.802964000E0
3.878428719E0,1.693897694E-1,1.574187577E-1,9.785700798E0,9.788432646E0
3.880949291E0,1.646013707E-1,1.478419602E-1,9.776124001E0,9.778627272E0
3.883469864E0,1.646013707E-1,1.430535465E-1,9.780912399E0,9.783343257E0
3.885990489E0,1.646013707E-1,1.478419602E-1,9.795277596E0,9.797775974E0
3.888511114E0,1.741781682E-1,1.430535465E-1,9.800065994E0,9.802657591E0
3.891031739E0,1.693897694E-1,1.430535465E-1,9.790489197E0,9.792999332E0
3.893552364E0,1.693897694E-1,1.286883354E-1,9.790489197E0,9.792800023E0
3.896072989E0,1.646013707E-1,1.286883354E-1,9.795277596E0,9.797505676E0
3.898593614E0,1.598129570E-1,1.382651478E-1,9.790489197E0,9.792769585E0
3.901114239E0,1.598129570E-1,1.478419602E-1,9.800065994E0,9.802483916E0
3.903634864E0,1.598129570E-1,1.526303589E-1,9.809642792E0,9.812131670E0
3.906155281E0,1.693897694E-1,1.430535465E-1,9.795277596E0,9.797786504E0
3.908675698E0,1.646013707E-1,1.382651478E-1,9.795277596E0,9.797636145E0
3.911196114E0,1.741781682E-1,1.478419602E-1,9.790489197E0,9.793154445E0
3.913716531E0,1.550245583E-1,1.382651478E-1,9.814431190E0,9.816629231E0
3.916236948E0,1.598129570E-1,1.430535465E-1,9.800065994E0,9.802412866E0
3.918757364E0,1.693897694E-1,1.191115379E-1,9.790489197E0,9.792678855E0
3.921277833E0,1.789665818E-1,1.382651478E-1,9.814431190E0,9.817036512E0
3.923798354E0,1.693897694E-1,1.430535465E-1,9.790489197E0,9.792999332E0
3.926318927E0,1.598129570E-1,1.622071713E-1,9.800065994E0,9.802711096E0
3.928839552E0,1.502361596E-1,1.526303589E-1,9.795277596E0,9.797618593E0
3.931360229E0,1.646013707E-1,1.430535465E-1,9.771335602E0,9.773768842E0
3.933880958E0,1.646013707E-1,1.478419602E-1,9.790489197E0,9.792988797E0
3.936401791E0,1.598129570E-1,1.526303589E-1,9.785700798E0,9.788195764E0
3.938922729E0,1.693897694E-1,1.478419602E-1,9.776124001E0,9.778709046E0
3.941443771E0,1.550245583E-1,1.478419602E-1,9.780912399E0,9.783258006E0
3.943964916E0,1.693897694E-1,1.574187577E-1,9.800065994E0,9.802793839E0
3.946486166E0,1.598129570E-1,1.478419602E-1,9.814431190E0,9.816845574E0
3.949007469E0,1.837549806E-1,1.526303589E-1,9.804854393E0,9.807763842E0
3.951528823E0,1.837549806E-1,1.526303589E-1,9.795277596E0,9.798189889E0
3.954050177E0,1.789665818E-1,1.478419602E-1,9.785700798E0,9.788453728E0
3.956571531E0,1.646013707E-1,1.478419602E-1,9.771335602E0,9.773840100E0
3.959092885E0,1.598129570E-1,1.526303589E-1,9.795277596E0,9.797770123E0
3.961614187E0,1.502361596E-1,1.574187577E-1,9.776124001E0,9.778545497E0
3.964135437E0,1.646013707E-1,1.286883354E-1,9.790489197E0,9.792718367E0
3.966656531E0,1.837549806E-1,1.430535465E-1,9.785700798E0,9.788471296E0
3.969177625E0,1.502361596E-1,1.430535465E-1,9.776124001E0,9.778324790E0
3.971698562E0,1.598129570E-1,1.430535465E-1,9.795277596E0,9.797625614E0
3.974219500E0,1.598129570E-1,1.478419602E-1,9.780912399E0,9.783335055E0
3.976740385E0,1.693897694E-1,1.478419602E-1,9.790489197E0,9.793070451E0
3.979261271E0,1.693897694E-1,1.478419602E-1,9.795277596E0,9.797857588E0
3.981782156E0,1.789665818E-1,1.574187577E-1,9.795277596E0,9.798177018E0
3.984302885E0,1.598129570E-1,1.478419602E-1,9.790489197E0,9.792909483E0
3.986823614E0,1.550245583E-1,1.526303589E-1,9.780912399E0,9.783331539E0
3.989344344E0,1.693897694E-1,1.526303589E-1,9.800065994E0,9.802718113E0
3.991865073E0,1.789665818E-1,1.574187577E-1,9.790489197E0,9.793390037E0
3.994385802E0,1.693897694E-1,1.430535465E-1,9.790489197E0,9.792999332E0
3.996906531E0,1.693897694E-1,1.622071713E-1,9.790489197E0,9.793297850E0
3.999427260E0,1.646013707E-1,1.622071713E-1,9.790489197E0,9.793216197E0
4.001948041E0,1.550245583E-1,1.430535465E-1,9.776124001E0,9.778399532E0
4.004468823E0,1.693897694E-1,1.334767491E-1,9.790489197E0,9.792864119E0
4.006989656E0,1.550245583E-1,1.334767491E-1,9.804854393E0,9.806988239E0
4.009510541E0,1.693897694E-1,1.478419602E-1,9.804854393E0,9.807431866E0
4.012031427E0,1.646013707E-1,1.430535465E-1,9.785700798E0,9.788130467E0
4.014552312E0,1.646013707E-1,1.526303589E-1,9.785700798E0,9.788275116E0
4.017073094E0,1.646013707E-1,1.622071713E-1,9.785700798E0,9.788429133E0
4.019593302E0,1.741781682E-1,1.526303589E-1,9.790489197E0,9.793227904E0
4.022113510E0,1.693897694E-1,1.622071713E-1,9.776124001E0,9.778936779E0
4.024633719E0,1.693897694E-1,1.622071713E-1,9.780912399E0,9.783723801E0
4.027153927E0,1.646013707E-1,1.526303589E-1,9.800065994E0,9.802636540E0
4.029674135E0,1.789665818E-1,1.574187577E-1,9.790489197E0,9.793390037E0
4.032194344E0,1.837549806E-1,1.717839688E-1,9.790489197E0,9.793720148E0
4.034714552E0,1.598129570E-1,1.478419602E-1,9.795277596E0,9.797696699E0
4.037234812E0,1.741781682E-1,1.526303589E-1,9.809642792E0,9.812376153E0
4.039755125E0,1.646013707E-1,1.430535465E-1,9.800065994E0,9.802492103E0
4.042275489E0,1.693897694E-1,1.382651478E-1,9.780912399E0,9.783356147E0
4.044795906E0,1.789665818E-1,1.382651478E-1,9.785700798E0,9.788313767E0
4.047316375E0,1.598129570E-1,1.430535465E-1,9.785700798E0,9.788051114E0
4.049836896E0,1.598129570E-1,1.622071713E-1,9.780912399E0,9.783562680E0
4.052357469E0,1.550245583E-1,1.622071713E-1,9.795277596E0,9.797847057E0
4.054878146E0,1.550245583E-1,1.526303589E-1,9.795277596E0,9.797693188E0
4.057398875E0,1.598129570E-1,1.526303589E-1,9.809642792E0,9.812131670E0
4.059919656E0,1.741781682E-1,1.526303589E-1,9.800065994E0,9.802802026E0
4.062440489E0,1.646013707E-1,1.430535465E-1,9.804854393E0,9.807279317E0
4.064961375E0,1.646013707E-1,1.478419602E-1,9.800065994E0,9.802563152E0
4.067482260E0,1.693897694E-1,1.478419602E-1,9.795277596E0,9.797857588E0
4.070003146E0,1.693897694E-1,1.430535465E-1,9.800065994E0,9.802573678E0
4.072524031E0,1.741781682E-1,1.526303589E-1,9.795277596E0,9.798014964E0
4.075044916E0,1.837549806E-1,1.382651478E-1,9.785700798E0,9.788402487E0
4.077565802E0,1.789665818E-1,1.382651478E-1,9.800065994E0,9.802675134E0
4.080086687E0,1.789665818E-1,1.430535465E-1,9.780912399E0,9.783595490E0
4.082607573E0,1.693897694E-1,1.286883354E-1,9.780912399E0,9.783225488E0
4.085128458E0,1.741781682E-1,1.478419602E-1,9.800065994E0,9.802728639E0
4.087649344E0,1.693897694E-1,1.526303589E-1,9.790489197E0,9.793143910E0
4.090170229E0,1.646013707E-1,1.382651478E-1,9.790489197E0,9.792848900E0
4.092691114E0,1.598129570E-1,1.286883354E-1,9.804854393E0,9.807001098E0
4.095212000E0,1.454477459E-1,1.430535465E-1,9.785700798E0,9.787827107E0
4.097732885E0,1.358709484E-1,1.526303589E-1,9.785700798E0,9.787834135E0
4.100253771E0,1.598129570E-1,1.478419602E-1,9.795277596E0,9.797696699E0
4.102774552E0,1.693897694E-1,1.622071713E-1,9.795277596E0,9.798084876E0
4.105295073E0,1.885433793E-1,1.382651478E-1,9.785700798E0,9.788493549E0
4.107815281E0,1.741781682E-1,1.478419602E-1,9.776124001E0,9.778793164E0
4.110335489E0,1.837549806E-1,1.669955701E-1,9.785700798E0,9.788850470E0
4.112855698E0,1.789665818E-1,1.430535465E-1,9.780912399E0,9.783595490E0
4.115375958E0,1.598129570E-1,1.382651478E-1,9.804854393E0,9.807131441E0
4.117896271E0,1.741781682E-1,1.430535465E-1,9.814431190E0,9.817018995E0
4.120416687E0,1.789665818E-1,1.430535465E-1,9.819219589E0,9.821892216E0
4.122937208E0,1.693897694E-1,1.382651478E-1,9.800065994E0,9.802504967E0
4.125457833E0,1.646013707E-1,1.334767491E-1,9.800065994E0,9.802357020E0
4.127978562E0,1.550245583E-1,1.334767491E-1,9.804854393E0,9.806988239E0
4.130499396E0,1.693897694E-1,1.382651478E-1,9.790489197E0,9.792930555E0
4.133020333E0,1.693897694E-1,1.334767491E-1,9.780912399E0,9.783289646E0
4.135541375E0,1.789665818E-1,1.478419602E-1,9.790489197E0,9.793240781E0
4.138062469E0,1.598129570E-1,1.430535465E-1,9.790489197E0,9.792838363E0
4.140583614E0,1.646013707E-1,1.478419602E-1,9.804854393E0,9.807350331E0
4.143104760E0,1.693897694E-1,1.430535465E-1,9.814431190E0,9.816935204E0
4.145625906E0,1.741781682E-1,1.574187577E-1,9.809642792E0,9.812451804E0
4.148147052E0,1.646013707E-1,1.526303589E-1,9.790489197E0,9.793062256E0
4.150667833E0,1.646013707E-1,1.334767491E-1,9.790489197E0,9.792782463E0
4.153188562E0,1.741781682E-1,1.334767491E-1,9.790489197E0,9.792948115E0
4.155709239E0,1.741781682E-1,1.382651478E-1,9.795277596E0,9.797801716E0
4.158229916E0,1.646013707E-1,1.334767491E-1,9.780912399E0,9.783207910E0
4.160750594E0,1.789665818E-1,1.430535465E-1,9.790489197E0,9.793169664E0
4.163271271E0,1.741781682E-1,1.334767491E-1,9.809642792E0,9.812096910E0
4.165791948E0,1.741781682E-1,1.430535465E-1,9.814431190E0,9.817018995E0
4.168312677E0,1.885433793E-1,1.478419602E-1,9.809642792E0,9.812568346E0
4.170833458E0,1.933317930E-1,1.478419602E-1,9.800065994E0,9.803087673E0
4.173354291E0,1.789665818E-1,1.382651478E-1,9.804854393E0,9.807462259E0
4.175875177E0,1.693897694E-1,1.526303589E-1,9.804854393E0,9.807505217E0
4.178396062E0,1.741781682E-1,1.526303589E-1,9.785700798E0,9.788440845E0
4.180916948E0,1.837549806E-1,1.430535465E-1,9.795277596E0,9.798045386E0
4.183437833E0,1.741781682E-1,1.430535465E-1,9.795277596E0,9.797870459E0
4.185958719E0,1.789665818E-1,1.334767491E-1,9.785700798E0,9.788247299E0
4.188479604E0,1.789665818E-1,1.334767491E-1,9.790489197E0,9.793034453E0
4.191000541E0,1.741781682E-1,1.430535465E-1,9.785700798E0,9.788296198E0
4.193521531E0,1.741781682E-1,1.430535465E-1,9.790489197E0,9.793083328E0
4.196042573E0,1.789665818E-1,1.526303589E-1,9.780912399E0,9.783740206E0
4.198563614E0,1.789665818E-1,1.430535465E-1,9.785700798E0,9.788382576E0
