"Time (s)","Linear Acceleration x (m/s^2)","Linear Acceleration y (m/s^2)","Linear Acceleration z (m/s^2)","Absolute acceleration (m/s^2)"
1.142223010E-1,-6.039307266E-2,3.879290819E-2,0.000000000E0,7.177891718E-2
1.191275100E-1,-3.754428029E-2,1.350724697E-2,-1.741218567E-2,4.353392830E-2
1.240327180E-1,-3.882224485E-2,2.560353279E-2,-4.230308533E-2,6.286699146E-2
1.289379260E-1,-3.589054942E-2,3.262150288E-2,-1.696395874E-2,5.138161037E-2
1.338431350E-1,-2.884108946E-2,1.260697842E-2,-6.870269775E-3,3.221715308E-2
1.387457390E-1,-2.692119405E-2,2.929329872E-3,-1.983070374E-2,3.356469087E-2
1.436530310E-1,-2.520368621E-2,-1.640558243E-3,-2.758026123E-2,3.739770099E-2
1.485693850E-1,-1.922718436E-2,1.212716103E-2,-3.048038483E-2,3.802376246E-2
1.534986030E-1,-4.604734480E-3,7.082819939E-3,-2.880191803E-2,3.001533608E-2
1.584438640E-1,-4.321798682E-3,2.374529839E-3,-8.869171143E-5,4.931957220E-3
1.634075620E-1,-4.123799503E-3,2.556204796E-3,8.982658386E-3,1.020921432E-2
1.683912600E-1,-1.306641474E-2,-1.872658730E-3,2.676963806E-2,2.984713666E-2
1.733956350E-1,-3.383412957E-3,2.987861633E-3,2.096080780E-2,2.144132141E-2
1.784205310E-1,1.335766166E-3,-1.515984535E-3,2.918910980E-2,2.925895780E-2
1.834649580E-1,-7.955916226E-3,3.443717957E-3,4.170799255E-2,4.259944177E-2
1.885271970E-1,-7.645919919E-3,3.564953804E-3,4.001331329E-2,4.089296061E-2
1.936048530E-1,-1.200972870E-2,-1.928269863E-2,2.923393250E-2,3.702268033E-2
1.986950620E-1,-1.618955284E-2,-2.752912045E-2,1.890277863E-2,3.711157681E-2
2.037945410E-1,-1.561972499E-2,-3.100311756E-2,4.359245300E-3,3.498817124E-2
2.088945410E-1,-2.428505942E-2,-3.896915913E-2,4.186630249E-3,4.610734591E-2
2.139945410E-1,-4.194279015E-2,-3.282994032E-2,4.024505615E-3,5.341534679E-2
2.190804780E-1,-2.669641003E-2,-3.161054850E-2,-1.465797424E-2,4.389511697E-2
2.241014160E-1,-2.122655511E-2,-3.505271673E-2,-2.349853516E-2,4.723812810E-2
2.291223530E-1,-1.594837382E-2,-2.459567785E-2,-3.208446503E-2,4.345930157E-2
2.341432910E-1,-3.876568004E-2,-3.311002254E-2,-3.114604950E-2,5.974217892E-2
2.391641760E-1,-3.312113136E-2,-1.344913244E-2,-1.166057587E-2,3.760129699E-2
2.441850620E-1,-3.692063689E-2,-1.296681166E-2,-2.037048340E-3,3.918445099E-2
2.492059470E-1,-4.069140553E-2,-7.899403572E-3,-6.646156311E-3,4.198050089E-2
2.542268330E-1,-3.046134859E-2,-1.695811749E-2,2.847671509E-3,3.497971898E-2
2.592477180E-1,-3.445571288E-2,-7.235348225E-3,2.779006958E-3,3.531669993E-2
2.642686030E-1,-2.909140661E-2,-2.378165722E-3,1.204681396E-2,3.157675312E-2
2.692894890E-1,-2.854256332E-2,2.409577370E-3,2.109050751E-2,3.557096415E-2
2.743103740E-1,-2.802896872E-2,-7.039725780E-3,2.059268951E-2,3.548576740E-2
2.793312600E-1,-1.351209171E-2,-6.970047951E-3,1.076984406E-2,1.863190092E-2
2.843521450E-1,5.403161049E-3,-2.175450325E-3,1.520919800E-2,1.628638809E-2
2.893730310E-1,1.454723626E-2,-6.852805614E-3,1.955795288E-2,2.531988445E-2
2.943939160E-1,1.407500915E-2,-2.164959908E-3,2.383232117E-2,2.776278924E-2
2.994148010E-1,4.286970943E-3,-6.899654865E-3,2.333545685E-2,2.470884262E-2
3.044356870E-1,8.770704269E-3,-1.158976555E-2,1.817607880E-2,2.327268268E-2
3.094565720E-1,8.435487747E-3,-6.757199764E-3,1.781558990E-2,2.083776490E-2
3.144774580E-1,1.284370944E-2,-1.146006584E-2,1.278114319E-2,2.143948699E-2
3.194983430E-1,1.723207533E-2,-1.138114929E-2,3.156661987E-3,2.089113435E-2
3.245192280E-1,2.701144665E-3,-1.140999794E-2,3.121376038E-3,1.213372259E-2
3.295401140E-1,-1.149835065E-2,-6.642580032E-3,1.717185974E-2,2.170734217E-2
3.345609990E-1,-2.001855522E-3,-1.965463161E-3,7.469177246E-3,7.978664030E-3
3.395818850E-1,-6.828606129E-3,2.625763416E-3,7.348060608E-3,1.036911230E-2
3.446027700E-1,-1.157663763E-2,2.433180809E-3,2.604293823E-2,2.860373296E-2
3.496236560E-1,-2.099538967E-2,2.244591713E-3,3.030681610E-2,3.693707733E-2
3.546445410E-1,-2.550122142E-2,6.765782833E-3,3.450489044E-2,4.343587890E-2
3.596654260E-1,-2.529264987E-2,6.505429745E-3,3.393554688E-2,4.282125751E-2
3.646863120E-1,-2.515125275E-2,1.571983099E-2,2.396297455E-2,3.813033897E-2
3.697071970E-1,-1.093543321E-2,2.478748560E-2,2.829074860E-2,3.917103009E-2
3.747280830E-1,-1.606579870E-3,3.366398811E-2,2.313899994E-2,4.088102876E-2
3.797489680E-1,-1.598820463E-2,3.779846430E-2,-7.848739624E-4,4.104829616E-2
3.847698530E-1,-2.073245496E-2,5.130535364E-2,-7.667541504E-4,5.534132193E-2
3.897907390E-1,2.890132368E-3,5.057495832E-2,-5.474090576E-3,5.095237916E-2
3.948116240E-1,1.201317459E-2,6.401497126E-2,-3.369045258E-2,7.332993593E-2
3.998325100E-1,2.103309333E-2,5.850464106E-2,-4.263782501E-2,7.538679037E-2
4.048533950E-1,6.294365972E-3,7.195997238E-2,-2.787303925E-2,7.742585476E-2
4.098743330E-1,1.531962305E-2,9.477615356E-2,-3.693294525E-2,1.028652156E-1
4.148952700E-1,1.493838429E-2,1.173375845E-1,-4.587745667E-2,1.268700323E-1
4.199162080E-1,2.400222048E-2,1.208240986E-1,-4.527378082E-2,1.312413221E-1
4.249371450E-1,1.877398044E-2,1.149964333E-1,-4.470348358E-2,1.248000138E-1
4.299580830E-1,8.908767253E-3,1.235928535E-1,-5.361080170E-2,1.350136202E-1
4.349790200E-1,3.948297352E-3,1.227003336E-1,-5.296611786E-2,1.337025451E-1
4.399999580E-1,1.328502595E-2,1.314451694E-1,-4.763126373E-2,1.404388186E-1
4.450208950E-1,3.200341389E-2,1.308014393E-1,-4.239082336E-2,1.411744202E-1
4.500418330E-1,2.207028493E-2,1.208903790E-1,-5.142116547E-2,1.332130529E-1
4.550627700E-1,1.221688464E-2,1.206834316E-1,-4.144668579E-2,1.281856884E-1
4.600837080E-1,7.223319262E-3,1.111458540E-1,-2.688884735E-2,1.145800476E-1
4.651046450E-1,7.119316608E-3,9.239113331E-2,-7.799148560E-3,9.299264972E-2
4.701255830E-1,7.017701864E-3,9.290230274E-2,-1.260375977E-2,9.401564101E-2
4.751465200E-1,-2.587679774E-3,7.455253601E-2,6.294250488E-3,7.486250264E-2
4.801674580E-1,2.109076828E-3,5.653798580E-2,1.549339294E-2,5.866035517E-2
4.851883950E-1,-1.222147420E-2,4.358017445E-2,2.930641174E-2,5.392088469E-2
4.902093330E-1,-1.209144294E-2,4.034841061E-2,2.875328064E-2,5.099949390E-2
4.952302700E-1,-1.207805797E-2,2.296221256E-2,3.767681122E-2,4.574587188E-2
5.002512080E-1,-7.276374847E-3,3.886091709E-2,1.337528229E-2,4.173744942E-2
5.052721450E-1,-1.679418236E-2,4.521942139E-2,1.774501801E-2,5.139772656E-2
5.102930830E-1,-2.141062543E-2,4.677742720E-2,3.627300262E-2,6.294659082E-2
5.153140200E-1,-2.128421143E-2,5.321335793E-2,3.090763092E-2,6.511498112E-2
5.203349580E-1,-1.174699888E-2,6.910848618E-2,1.139259338E-2,7.101947640E-2
5.253558950E-1,-2.258155495E-3,8.499360085E-2,1.102256775E-2,8.573510629E-2
5.303768330E-1,1.180331036E-2,9.124463797E-2,-8.290290833E-3,9.237765431E-2
5.353977700E-1,1.160191372E-2,9.764593840E-2,-4.163169861E-2,1.067826391E-1
5.404187080E-1,2.082844451E-2,1.040423512E-1,-4.146480560E-2,1.139208719E-1
5.454396450E-1,3.001271188E-2,1.294922233E-1,-3.184318542E-2,1.366857243E-1
5.504605830E-1,2.489884570E-2,1.358917356E-1,-1.760005951E-2,1.392705224E-1
5.554815200E-1,1.031007618E-3,1.565624475E-1,-2.721214294E-2,1.589130696E-1
5.605024580E-1,1.053012908E-3,1.535463333E-1,-4.149055481E-2,1.590567554E-1
5.655233950E-1,5.872130394E-3,1.269764304E-1,-2.245616913E-2,1.290804994E-1
5.705443330E-1,1.070083305E-2,9.135478735E-2,-4.155540466E-2,1.009309499E-1
5.755652700E-1,1.547804102E-2,5.145311356E-2,-6.048107147E-2,8.090088167E-2
5.805862080E-1,1.551482826E-2,2.158224583E-2,-7.924270630E-2,8.358175478E-2
5.856071450E-1,2.015066892E-2,6.227314472E-3,-6.463336945E-2,6.798750877E-2
5.906280830E-1,5.984295160E-3,-1.367241144E-2,-3.594589233E-2,3.892112279E-2
5.956490200E-1,-3.304712474E-3,-2.389913797E-2,-4.073238373E-2,4.734149348E-2
6.006699580E-1,-3.081656992E-3,-5.305826664E-2,-2.649688721E-2,5.938654141E-2
6.056908950E-1,-2.182716504E-2,-7.715666294E-2,-2.188682556E-2,8.311804198E-2
6.107118330E-1,-2.623080090E-2,-9.629571438E-2,-3.085136414E-3,9.985207855E-2
6.157327700E-1,-2.579520270E-2,-1.106787324E-1,1.556205750E-2,1.147055008E-1
6.207537080E-1,-3.961142153E-2,-1.154502034E-1,1.980781555E-2,1.236534017E-1
6.257746450E-1,-3.437155113E-2,-1.202400327E-1,2.877044678E-2,1.283230595E-1
6.307955830E-1,-3.867285699E-2,-1.061674953E-1,3.767204285E-2,1.191062959E-1
6.358165200E-1,-3.824957833E-2,-1.017706990E-1,5.125141144E-2,1.201957262E-1
6.408374580E-1,-3.787479922E-2,-9.747171402E-2,6.947135925E-2,1.255448335E-1
6.458583950E-1,-4.337608814E-3,-1.169520617E-1,7.329940796E-2,1.380920084E-1
6.508793330E-1,-1.371622458E-2,-1.031449437E-1,5.337429047E-2,1.169437006E-1
6.559002700E-1,-8.763279766E-3,-8.941090107E-2,5.260944366E-2,1.041098356E-1
6.609212080E-1,-8.657187223E-3,-8.070135117E-2,5.187034607E-2,9.632335009E-2
6.659421450E-1,-1.798842475E-2,-7.687032223E-2,4.164981842E-2,8.925994196E-2
6.709630830E-1,-2.250290290E-2,-6.837379932E-2,2.202415466E-2,7.527562993E-2
6.759840200E-1,-1.278120279E-2,-5.519962311E-2,2.630519867E-2,6.246856020E-2
6.810049580E-1,-3.084186465E-3,-7.067781687E-2,1.156234741E-2,7.168370722E-2
6.860258950E-1,-2.969682217E-3,-8.607852459E-2,-7.800102234E-3,8.648221206E-2
6.910468330E-1,6.589181721E-3,-7.291144133E-2,-2.699470520E-2,7.802698060E-2
6.960677700E-1,-2.873975784E-3,-8.359658718E-2,-1.278877258E-2,8.461797580E-2
7.010887080E-1,-7.561452687E-3,-9.909611940E-2,-3.435134888E-3,9.944353473E-2
7.061096450E-1,1.993153244E-3,-9.067267179E-2,-1.315689087E-2,9.164392968E-2
7.111305830E-1,-1.702751964E-2,-1.013131142E-1,5.694389343E-3,1.028917373E-1
7.161515200E-1,-7.351610810E-3,-1.119163036E-1,-4.096984863E-3,1.122323059E-1
7.211724580E-1,-1.199731231E-2,-1.320832968E-1,9.950637817E-3,1.329998044E-1
7.261933950E-1,-2.124497294E-2,-1.426886320E-1,2.863979340E-2,1.470769606E-1
7.312143330E-1,-1.627798378E-2,-1.581605673E-1,3.769397736E-2,1.634031020E-1
7.362352700E-1,-2.085390314E-2,-1.640062928E-1,2.767944336E-2,1.676278645E-1
7.412562080E-1,-1.114621013E-2,-1.794036031E-1,4.624938965E-2,1.856041401E-1
7.462771450E-1,-6.160125136E-3,-1.948276162E-1,-1.800537109E-3,1.949332940E-1
7.512980830E-1,-1.562061533E-2,-2.150781155E-1,4.079151154E-2,2.194687832E-1
7.563190200E-1,-2.015481517E-2,-2.353147268E-1,3.080844879E-2,2.381772402E-1
7.613399580E-1,-2.949433774E-2,-2.413958907E-1,3.042793274E-2,2.450872316E-1
7.663608950E-1,-1.981374994E-2,-2.429363132E-1,3.482151031E-2,2.462177380E-1
7.713818330E-1,-2.430428751E-2,-2.398186922E-1,3.918743134E-2,2.442117079E-1
7.764027700E-1,-2.416837029E-2,-2.417337894E-1,3.404235840E-2,2.453124890E-1
7.814237080E-1,-1.917738840E-2,-2.389879823E-1,4.794311523E-2,2.445026998E-1
7.864446450E-1,-3.326941282E-2,-2.269750237E-1,2.850627899E-2,2.311647101E-1
7.914655830E-1,-2.361353301E-2,-1.963263750E-1,3.774356842E-2,2.013112551E-1
7.964865200E-1,-3.313984722E-2,-1.897787452E-1,4.216384888E-2,1.972105772E-1
8.015074580E-1,-1.398808695E-2,-1.739439964E-1,4.181289673E-2,1.794449743E-1
8.065283950E-1,-1.879441179E-2,-1.536476612E-1,4.622554779E-2,1.615476245E-1
8.115493330E-1,-4.566693678E-3,-1.431208849E-1,4.586124420E-2,1.503585585E-1
8.165702700E-1,-4.754761234E-3,-1.232882142E-1,4.076099396E-2,1.299386399E-1
8.215912080E-1,9.411919862E-3,-1.085247397E-1,4.996109009E-2,1.198428717E-1
8.266121450E-1,9.266752750E-3,-9.393596649E-2,3.059673309E-2,9.922700531E-2
8.316330830E-1,2.801335603E-2,-7.957226038E-2,3.039646149E-2,8.966848727E-2
8.366540200E-1,3.230651468E-2,-7.012850046E-2,2.545452118E-2,8.129975471E-2
8.416749580E-1,2.237012610E-2,-5.601489544E-2,1.105690002E-2,6.132166086E-2
8.466958950E-1,3.156650066E-2,-3.737407923E-2,1.578140259E-2,5.140348655E-2
8.517168330E-1,3.113753349E-2,-2.833384275E-2,2.046203613E-2,4.680862698E-2
8.567377700E-1,3.070788085E-2,-1.947224140E-2,1.561546326E-2,3.957252613E-2
8.617587080E-1,1.603632793E-2,-1.553642750E-2,1.081848145E-2,2.481096398E-2
8.667796450E-1,1.586191356E-3,-1.152974367E-2,6.052017212E-3,1.311784679E-2
8.718005830E-1,-1.273924857E-2,-2.655065060E-2,1.324653625E-3,2.947847025E-2
8.768215200E-1,-1.275580376E-2,-2.730417252E-2,-1.285076141E-2,3.276233257E-2
8.818424580E-1,-2.222178876E-2,-2.805119753E-2,-7.913589478E-3,3.665109108E-2
8.868633950E-1,-3.155288473E-2,-1.924341917E-2,-2.201652527E-2,4.301884588E-2
8.918843330E-1,-7.721856236E-3,-2.480626106E-2,-1.700305939E-2,3.104966474E-2
8.969052700E-1,-2.676131576E-2,-3.032326698E-2,-2.152824402E-2,4.581630531E-2
9.019262080E-1,-2.190390602E-2,-3.104555607E-2,-7.021903992E-3,3.863825547E-2
9.069471450E-1,-1.229104400E-2,-2.231639624E-2,-6.876945496E-3,2.638908265E-2
9.119680830E-1,-2.655250579E-2,-8.911430836E-3,-6.733894348E-3,2.880615379E-2
9.169890200E-1,-3.599832579E-2,4.433572292E-3,7.650375366E-3,3.706837286E-2
9.220099580E-1,-2.642313018E-2,2.241587639E-2,1.241779327E-2,3.680835385E-2
9.270308950E-1,-4.537566751E-2,3.080332279E-2,2.188873291E-2,5.905008489E-2
9.320517810E-1,-4.041910172E-2,5.341780186E-2,1.703166962E-2,6.911760346E-2
9.370726660E-1,-1.181305200E-2,6.164997816E-2,2.713203430E-3,6.283016376E-2
9.420935510E-1,-1.188466698E-2,7.941401005E-2,1.224803925E-2,8.122711842E-2
9.471144370E-1,-7.198475301E-3,9.702962637E-2,1.695537567E-2,9.876260023E-2
9.521353220E-1,6.885260344E-3,9.560823441E-2,-2.127647400E-3,9.587944607E-2
9.571562080E-1,1.135027036E-2,9.905081987E-2,-1.156330109E-2,1.003673427E-1
9.621770930E-1,3.007528186E-2,1.168136001E-1,-2.567768097E-2,1.233259220E-1
9.671979780E-1,4.400356486E-2,1.203378439E-1,-3.493881226E-2,1.328090019E-1
9.722188640E-1,4.352296889E-2,1.144389510E-1,-2.988624573E-2,1.260305916E-1
9.772397490E-1,3.835399821E-2,1.276863813E-1,-2.013683319E-2,1.348344660E-1
9.822606350E-1,2.841910347E-2,1.266817451E-1,-4.371643066E-2,1.369928330E-1
9.872815200E-1,1.867043227E-2,1.258405447E-1,-4.811859131E-2,1.360140675E-1
9.923024060E-1,1.380760968E-2,1.346065402E-1,-3.349971771E-2,1.393979980E-1
9.973232910E-1,8.881907910E-3,1.292091012E-1,-2.851200104E-2,1.326152869E-1
1.002344176E0,1.354156062E-2,1.144632101E-1,-1.882648468E-2,1.167888559E-1
1.007365062E0,-7.755085826E-4,1.142406464E-1,5.010604858E-3,1.143531060E-1
1.012385947E0,3.964614123E-3,1.188203096E-1,-4.595756531E-3,1.189752290E-1
1.017406833E0,-5.580265075E-3,1.092197299E-1,1.153945923E-4,1.093622516E-1
1.022427718E0,-1.029709354E-2,9.980255365E-2,3.051757812E-5,1.003323516E-1
1.027448603E0,-1.967142895E-2,7.626998425E-2,4.690170288E-3,7.890547073E-2
1.032469489E0,-9.969219565E-3,5.298513174E-2,-4.939079285E-3,5.414059501E-2
1.037490374E0,4.348926246E-3,3.949475288E-2,-2.517700195E-4,3.973426799E-2
1.042511260E0,-4.550665617E-4,4.505944252E-2,-3.471374512E-4,4.506307746E-2
1.047532145E0,-1.461262628E-2,2.219021320E-2,9.045600891E-3,2.806701453E-2
1.052553031E0,-9.701121598E-3,8.956491947E-3,-6.284713745E-4,1.321837677E-2
1.057573916E0,-4.886653274E-3,-8.863508701E-3,-1.022624969E-2,1.438809750E-2
1.062594801E0,-4.813484848E-3,-1.228928566E-2,-1.499557495E-2,1.997657244E-2
1.067615687E0,-4.792634398E-3,-2.043503523E-2,-1.972484589E-2,2.880329069E-2
1.072636572E0,-1.421287283E-2,-3.806191683E-2,-5.415916443E-3,4.098838150E-2
1.077657458E0,-1.405326650E-2,-3.649634123E-2,-5.476951599E-3,3.949017879E-2
1.082678343E0,3.504902124E-4,-3.974401951E-2,-7.839202881E-4,3.975329497E-2
1.087699281E0,4.360564053E-4,-2.871888876E-2,3.870010376E-3,2.898174765E-2
1.092720218E0,-8.967425674E-3,-4.632866383E-2,8.489608765E-3,4.794614971E-2
1.097741156E0,-8.799895644E-3,-4.004907608E-2,1.307106018E-2,4.303741712E-2
1.102762093E0,-1.813077554E-2,-4.326707125E-2,1.286220551E-2,4.864361013E-2
1.107783031E0,-1.789122447E-2,-5.130988359E-2,3.165721893E-2,6.288862837E-2
1.112803968E0,-1.770969108E-2,-5.933713913E-2,2.180957794E-2,6.565201389E-2
1.117824906E0,-1.272515208E-2,-6.729763746E-2,1.204395294E-2,6.954105482E-2
1.122845843E0,-1.257809252E-2,-7.524377108E-2,1.661014557E-2,7.807515887E-2
1.127866781E0,-1.243227720E-2,-7.372999191E-2,1.639842987E-2,7.654790478E-2
1.132887718E0,-1.229623705E-2,-7.222849131E-2,6.690979004E-3,7.357256012E-2
1.137908656E0,-1.690557599E-2,-7.559162378E-2,1.822471619E-3,7.748040713E-2
1.142929593E0,-1.197949052E-2,-8.367520571E-2,6.491661072E-3,8.477729594E-2
1.147950531E0,-2.345986664E-3,-9.169143438E-2,1.625061035E-3,9.173583605E-2
1.152971468E0,-1.173079014E-2,-9.509932995E-2,1.564025879E-3,9.583287625E-2
1.157992406E0,-1.164384559E-2,-1.032273173E-1,-1.274204254E-2,1.046604884E-1
1.163013343E0,2.739574760E-3,-1.160877943E-1,-1.742649078E-2,1.174204575E-1
1.168034281E0,7.501896471E-3,-1.194474697E-1,-1.256656647E-2,1.203407457E-1
1.173055218E0,2.675812691E-3,-1.134371758E-1,-1.723194122E-2,1.147697374E-1
1.178076156E0,-2.110071480E-3,-9.328323603E-2,1.888275146E-3,9.332620269E-2
1.183097093E0,-6.804350764E-3,-9.234297276E-2,2.560138702E-2,9.606744935E-2
1.188118031E0,-1.625974104E-2,-9.621077776E-2,3.487682343E-2,1.036208751E-1
1.193138968E0,2.807144076E-3,-1.049501896E-1,4.408740997E-2,1.138688810E-1
1.198159906E0,-6.672449410E-3,-1.374109983E-1,4.847621918E-2,1.458637990E-1
1.203180843E0,-1.835916191E-3,-1.507620811E-1,3.384685516E-2,1.545256785E-1
1.208201781E0,-1.138444245E-2,-1.451115608E-1,5.102157593E-3,1.456468421E-1
1.213222718E0,-1.610492542E-2,-1.253660917E-1,2.883911133E-2,1.296445908E-1
1.218243656E0,-2.554289252E-2,-8.684253693E-2,3.338909149E-2,9.648262542E-2
1.223264593E0,-2.070845291E-2,-7.738965750E-2,5.216693878E-2,9.560014964E-2
1.228285531E0,-3.015564010E-2,-7.756453753E-2,3.280448914E-2,8.945252718E-2
1.233306468E0,-2.522685379E-2,-7.778966427E-2,3.734970093E-2,8.990342696E-2
1.238327406E0,-2.038254961E-2,-8.751022816E-2,4.660606384E-2,1.012206182E-1
1.243348343E0,-1.082593203E-2,-7.820779085E-2,2.729797363E-2,8.353944409E-2
1.248369281E0,-6.109979004E-3,-5.953711271E-2,1.290416718E-2,6.122513507E-2
1.253390218E0,-1.480884850E-3,-2.682840824E-2,3.382682800E-3,2.708134139E-2
1.258411156E0,-1.638855785E-3,-1.348972321E-2,-1.079940796E-2,1.735758315E-2
1.263432093E0,-1.129249483E-2,-1.587867737E-4,-1.537513733E-2,1.907722466E-2
1.268453031E0,-1.601373032E-2,8.312702179E-3,-9.183883667E-4,1.806610122E-2
1.273473968E0,-6.613686681E-3,7.268607616E-3,-8.316040039E-4,9.862305684E-3
1.278494906E0,-1.984559000E-3,1.567834616E-2,4.008293152E-3,1.630384699E-2
1.283515843E0,-6.835058331E-3,1.926928759E-2,-5.437850952E-3,2.115641013E-2
1.288536781E0,7.297139615E-3,3.232729435E-2,-2.905082703E-2,4.407099678E-2
1.293557718E0,-2.383418381E-3,4.538017511E-2,-1.923561096E-2,4.934622281E-2
1.298578656E0,2.262216061E-3,5.357587337E-2,-9.502410889E-3,5.445904555E-2
1.303599593E0,-1.685643569E-2,4.761219025E-2,1.438236237E-2,5.251583029E-2
1.308620531E0,-7.341697812E-3,5.589270592E-2,9.581565857E-3,5.718130381E-2
1.313641468E0,2.110753208E-3,4.985803366E-2,9.570121765E-3,5.081206579E-2
1.318662406E0,6.774902344E-3,3.922909498E-2,-9.444236755E-3,4.091472599E-2
1.323683343E0,1.851480454E-3,3.823751211E-2,-4.562377930E-3,3.855321783E-2
1.328704281E0,-7.731962949E-3,5.624842644E-2,-9.218215942E-3,5.752081565E-2
1.333725218E0,1.120800897E-2,5.516672134E-2,-4.342079163E-3,5.646096227E-2
1.338746156E0,6.359666586E-3,6.364238262E-2,-9.008407593E-3,6.459063115E-2
1.343767093E0,1.103588939E-2,6.729948521E-2,-8.887290955E-3,6.877496277E-2
1.348788031E0,1.082978025E-2,6.638419628E-2,5.462646484E-3,6.748322875E-2
1.353808968E0,1.227557659E-3,6.077992916E-2,5.442619324E-3,6.103547159E-2
1.358829906E0,-8.294656873E-3,5.057728291E-2,6.656646729E-4,5.125725303E-2
1.363850843E0,-8.300833404E-3,4.515677691E-2,-4.067420959E-3,4.609319092E-2
1.368871781E0,1.250371337E-3,5.882686377E-2,-1.826190948E-2,6.160893334E-2
1.373892718E0,5.921758711E-3,6.293773651E-2,-3.851890564E-3,6.333295323E-2
1.378913656E0,-1.313224062E-2,5.762052536E-2,-3.815650940E-3,5.922111008E-2
1.383934593E0,-3.489054739E-3,5.714809895E-2,-2.277851105E-2,6.161930932E-2
1.388955531E0,1.377016306E-3,4.728603363E-2,-2.734661102E-2,5.464158018E-2
1.393976468E0,6.155118346E-3,3.750592470E-2,-2.237987518E-2,4.410712735E-2
1.398997406E0,1.288659871E-3,3.735625744E-2,-2.220630646E-2,4.347724302E-2
1.404018343E0,-3.481224179E-3,4.675644636E-2,-2.203941345E-2,5.180752786E-2
1.409039281E0,-1.290811598E-2,3.708422184E-2,-2.880096436E-3,3.937199415E-2
1.414060218E0,-1.285857335E-2,4.184132814E-2,-1.237964630E-2,4.548950749E-2
1.419081156E0,-1.745884493E-2,3.706204891E-2,-2.805709839E-3,4.106432446E-2
1.424102093E0,-1.257979497E-2,3.707128763E-2,1.618480682E-2,4.236129814E-2
1.429123031E0,-3.036003560E-3,3.718352318E-2,2.076339722E-2,4.269602297E-2
1.434143968E0,-7.821548730E-3,2.779799700E-2,1.580715179E-2,3.292068209E-2
1.439164906E0,-7.762685418E-3,1.379370689E-2,1.563549042E-2,2.224846501E-2
1.444185843E0,1.603386924E-2,-9.369850159E-5,2.971076965E-2,3.376127331E-2
1.449206781E0,1.583357528E-2,1.932257414E-2,1.043415070E-2,2.707278113E-2
1.454227718E0,1.094247028E-2,5.888938904E-4,1.031208038E-2,1.504737365E-2
1.459248656E0,1.553741843E-2,-3.639757633E-3,5.434036255E-3,1.685787522E-2
1.464269593E0,5.904581398E-3,-7.833361626E-3,1.484203339E-2,1.779077263E-2
1.469290531E0,5.836099386E-3,-2.618521452E-2,1.467037201E-2,3.057687575E-2
1.474311468E0,5.768187344E-3,-2.549356222E-2,1.450824738E-2,2.989453030E-2
1.479332406E0,1.016959548E-3,-2.480822802E-2,4.850387573E-3,2.529839212E-2
1.484353343E0,-1.799621806E-2,-1.932823658E-2,9.514808655E-3,2.807091337E-2
1.489374281E0,-1.310843974E-2,-1.864242554E-2,-4.853248596E-3,2.330075630E-2
1.494395218E0,-2.251120284E-2,-2.276229858E-2,1.414203644E-2,3.499819545E-2
1.499416156E0,-2.708710358E-2,-4.109328985E-2,4.487991333E-3,4.942177372E-2
1.504437093E0,-2.682037652E-2,-4.507797956E-2,1.391220093E-2,5.426698971E-2
1.509458031E0,-2.191511542E-2,-4.913270473E-2,1.377010345E-2,5.553296955E-2
1.514478968E0,-3.119277954E-2,-3.885644674E-2,1.837348938E-2,5.310742002E-2
1.519499906E0,-2.150684968E-2,-4.296284914E-2,1.819419861E-2,5.137489516E-2
1.524520843E0,-2.139437571E-2,-5.188715458E-2,-9.679794312E-4,5.613317296E-2
1.529541781E0,-1.653008908E-2,-5.118852854E-2,-1.522731781E-2,5.590510269E-2
1.534562718E0,-2.115586028E-2,-5.049556494E-2,-2.461910248E-2,6.002893227E-2
1.539583656E0,-1.629782841E-2,-6.410562992E-2,-1.018524170E-2,6.692451081E-2
1.544604593E0,2.816963941E-3,-5.871170759E-2,-2.435493469E-2,6.362517378E-2
1.549625531E0,-1.974299550E-3,-7.715684175E-2,-5.163192749E-3,7.735460327E-2
1.554646468E0,-1.617514715E-2,-5.756342411E-2,4.380226135E-3,5.995306132E-2
1.559667406E0,-1.809895039E-3,-4.757899046E-2,9.091377258E-3,4.847359275E-2
1.564688343E0,2.942889929E-3,-5.197513103E-2,4.270553589E-3,5.223325067E-2
1.569709281E0,2.851590514E-3,-4.694092274E-2,8.996009827E-3,4.788016279E-2
1.574730218E0,2.817012370E-3,-5.139410496E-2,2.792263031E-2,5.855734682E-2
1.579751156E0,2.778481692E-3,-5.116504431E-2,3.245449066E-2,6.065373594E-2
1.584772093E0,-6.804231554E-3,-3.669255972E-2,3.219985962E-2,4.928967909E-2
1.589793031E0,-2.065826207E-3,-3.194093704E-2,4.145336151E-2,5.237243815E-2
1.594813968E0,-6.863899529E-3,-2.722895145E-2,5.537796021E-2,6.209063851E-2
1.599834906E0,-2.111476287E-2,-2.735662460E-2,5.019760132E-2,6.094273787E-2
1.604855843E0,-1.145685464E-2,-2.748304605E-2,3.081417084E-2,4.284962617E-2
1.609876781E0,-1.142817736E-2,-2.771192789E-2,2.109813690E-2,3.665631686E-2
1.614897718E0,-1.619575545E-2,-3.268760443E-2,2.570819855E-2,4.462839287E-2
1.619918656E0,-6.578844041E-3,-3.762161732E-2,2.078342438E-2,4.348123742E-2
1.624939593E0,-1.133931056E-2,-2.826905251E-2,1.653671265E-3,3.050334280E-2
1.629960531E0,2.882149071E-3,-2.859491110E-2,-7.810592651E-3,2.978222761E-2
1.634981468E0,2.743840218E-3,-2.416968346E-2,-2.669334412E-2,3.611421988E-2
1.640002406E0,-6.842818111E-3,-2.452969551E-2,-3.117275238E-2,4.025258517E-2
1.645023343E0,-6.852578372E-3,-2.008640766E-2,-3.561973572E-2,4.146308208E-2
1.650044281E0,-6.862252951E-3,-2.037692070E-2,-3.528499603E-2,4.131997529E-2
1.655065218E0,-6.820105016E-3,-1.121973991E-2,-2.545261383E-2,2.863969181E-2
1.660086156E0,-1.632279903E-2,-2.138972282E-3,-3.944396973E-2,4.274149878E-2
1.665107093E0,-2.100203559E-2,1.636326313E-2,-2.007865906E-2,3.334658046E-2
1.670128031E0,-2.094976231E-2,1.571750641E-2,3.873825073E-3,2.647525391E-2
1.675148968E0,-1.619690657E-2,3.417438269E-2,1.812076569E-2,4.193555011E-2
1.680169906E0,-1.138017699E-2,3.348344564E-2,2.750110626E-2,4.479911167E-2
1.685190843E0,-1.855101436E-3,3.279829025E-2,1.780891418E-2,3.736745468E-2
1.690211781E0,-6.706617773E-3,4.166758060E-2,1.294136047E-2,4.414345712E-2
1.695232718E0,-6.773483008E-3,3.152090311E-2,1.285934448E-2,3.471037518E-2
1.700253656E0,-2.091296017E-3,3.095579147E-2,-1.467704773E-3,3.106104799E-2
1.705274593E0,-2.239800990E-3,3.044670820E-2,8.063316345E-3,3.157587401E-2
1.710295531E0,7.209133357E-3,3.954249620E-2,-1.098537445E-2,4.166844204E-2
1.715316468E0,2.333827317E-3,3.906548023E-2,3.363609314E-3,3.927941399E-2
1.720337406E0,7.043592632E-3,3.864443302E-2,-1.405715942E-3,3.930623917E-2
1.725358343E0,-2.574548125E-3,3.347802162E-2,-6.134033203E-3,3.413257378E-2
1.730379281E0,2.128690481E-3,2.365809679E-2,-1.082801819E-2,2.610522639E-2
1.735400218E0,-7.457070053E-3,1.872038841E-2,-1.073741913E-2,2.283315584E-2
1.740421156E0,2.134531736E-3,1.857233047E-2,-1.539707184E-2,2.421894932E-2
1.745442093E0,-7.386662066E-3,2.802538872E-2,-5.781173706E-3,2.955346272E-2
1.750463031E0,2.156913280E-3,2.800649405E-2,3.746032715E-3,2.833811470E-2
1.755483968E0,-2.572827041E-3,2.323931456E-2,8.445739746E-3,2.485992156E-2
1.760504906E0,-1.201163605E-2,1.846009493E-2,-1.134872437E-3,2.205317303E-2
1.765525843E0,2.318974584E-3,1.857268810E-2,3.601074219E-3,1.906017109E-2
1.770546781E0,-1.196083799E-2,9.187340736E-3,8.297920227E-3,1.721407434E-2
1.775567718E0,-1.182013378E-2,9.428739548E-3,1.295089722E-2,1.990835078E-2
1.780588656E0,-2.602957189E-2,9.564697742E-3,-1.420021057E-3,2.776758030E-2
1.785609541E0,-6.829366088E-3,-4.494249821E-3,3.318786621E-3,8.823427183E-3
1.790630426E0,-1.157910004E-2,-1.373952627E-2,3.273010254E-3,1.826369996E-2
1.795651312E0,-1.624182612E-2,-1.335883141E-2,1.746940613E-2,2.733926558E-2
1.800672197E0,-1.612147689E-2,-1.303285360E-2,7.808685303E-3,2.215249097E-2
1.805693083E0,-1.130535826E-2,-3.160774708E-3,1.247024536E-2,1.712625591E-2
1.810713968E0,-1.601783559E-2,-1.236546040E-2,2.847671509E-3,2.043489419E-2
1.815734853E0,-1.113801450E-2,-1.199656725E-2,-1.946449280E-3,1.648519510E-2
1.820755739E0,-6.255697459E-3,-2.107560635E-2,-1.956939697E-3,2.207135126E-2
1.825776624E0,-1.521818340E-3,-1.588505507E-2,-6.711006165E-3,1.731151378E-2
1.830797510E0,-1.519881189E-3,-2.023494244E-2,-2.092266083E-2,2.914653788E-2
1.835818395E0,-1.097175479E-2,-3.409695625E-2,-6.521224976E-3,3.640752950E-2
1.840839281E0,-1.089960709E-2,-3.349447250E-2,3.004074097E-3,3.535117515E-2
1.845860166E0,-1.552057266E-2,-1.870346069E-2,-1.128864288E-2,2.679815434E-2
1.850881051E0,-5.909249187E-3,-2.782988548E-2,-6.464004517E-3,2.917541956E-2
1.855901937E0,-1.537629589E-2,-3.207987547E-2,3.065109253E-3,3.570635490E-2
1.860922822E0,-1.013431698E-3,-3.164976835E-2,1.252365112E-2,3.405255817E-2
1.865943708E0,-5.764257163E-3,-4.077196121E-2,1.241016388E-2,4.300687909E-2
1.870964593E0,-5.722757429E-3,-4.501807690E-2,2.653884888E-2,5.257078751E-2
1.875985478E0,-9.416081011E-4,-5.882894993E-2,2.156448364E-2,6.266385665E-2
1.881006364E0,-5.796529353E-3,-5.353093147E-2,1.188278198E-2,5.513946758E-2
1.886027249E0,-1.046426967E-2,-5.777370930E-2,2.127647400E-2,6.244990610E-2
1.891048135E0,-1.520084590E-2,-5.263918638E-2,1.635932922E-2,5.718021783E-2
1.896069020E0,-1.984195784E-2,-5.224430561E-2,1.622676849E-2,5.819345990E-2
1.901089906E0,-5.549643189E-3,-6.615024805E-2,1.609992981E-2,6.830711234E-2
1.906110791E0,-5.570195615E-3,-5.630111694E-2,1.123332977E-2,5.768041735E-2
1.911131676E0,-1.033483818E-2,-6.083166599E-2,1.116085052E-2,6.270458558E-2
1.916152562E0,-1.500805095E-2,-6.537610292E-2,1.109218597E-2,6.798759458E-2
1.921173447E0,-5.457010120E-3,-5.088829994E-2,-7.969856262E-3,5.179687866E-2
1.926194333E0,-1.028280705E-2,-4.612177610E-2,-3.120422363E-3,4.735706270E-2
1.931215270E0,-5.515426397E-3,-4.614359140E-2,-1.730632782E-2,4.958991771E-2
1.936236208E0,-5.588009953E-3,-2.242279053E-2,-2.882957458E-3,2.328773999E-2
1.941257145E0,-1.510948315E-2,-1.784175634E-2,1.918792725E-3,2.345861283E-2
1.946278083E0,-1.036206633E-2,-3.801703453E-3,-1.706218719E-2,2.032101374E-2
1.951299020E0,-1.503504813E-2,-8.873105049E-3,-7.393836975E-3,1.895925870E-2
1.956319958E0,-1.977254823E-2,-4.405260086E-3,-1.679992676E-2,2.631724756E-2
1.961340895E0,-1.018179953E-2,4.774272442E-3,-1.188182831E-2,1.635972381E-2
1.966361833E0,-1.016373560E-2,1.387709379E-2,-1.175308228E-2,2.083291138E-2
1.971382770E0,-5.397327244E-3,1.820725203E-2,-6.881713867E-3,2.019884040E-2
1.976403708E0,-5.466625094E-3,1.300418377E-2,-1.154708862E-2,1.822986673E-2
1.981424645E0,-5.591318011E-3,1.734161377E-2,2.820014954E-3,1.843764870E-2
1.986445583E0,3.786284477E-3,1.214575768E-2,-1.926422119E-3,1.286726396E-2
1.991466520E0,-1.164022833E-3,1.649034023E-2,-1.138210297E-2,2.007083800E-2
1.996487458E0,-1.268573105E-3,6.604850292E-3,-1.769065857E-3,6.954345340E-3
2.001508395E0,8.124753833E-3,6.350457668E-3,3.010749817E-3,1.074265106E-2
2.006529333E0,1.273877546E-2,1.084685326E-2,3.003120422E-3,1.699851047E-2
2.011550270E0,7.873356342E-3,1.060879230E-2,2.990722656E-3,1.354550244E-2
2.016571208E0,1.724650711E-2,8.238554001E-4,-6.514549255E-3,1.845427043E-2
2.021592145E0,7.595013827E-3,-4.130899906E-3,-1.594161987E-2,1.813515407E-2
2.026613083E0,-1.146877557E-2,-4.296004772E-3,-6.296157837E-3,1.377062357E-2
2.031634020E0,-1.137970015E-2,-4.459738731E-3,-1.479148865E-3,1.231156881E-2
2.036654958E0,-1.604840159E-2,-1.406711340E-2,-1.454353333E-3,2.139041881E-2
2.041675895E0,-1.597289741E-2,1.478195190E-4,8.067131042E-3,1.789508048E-2
2.046696833E0,-2.059904113E-2,4.695713520E-3,2.226161957E-2,3.069120276E-2
2.051717770E0,-2.524263412E-2,9.205877781E-3,1.259613037E-2,2.967492651E-2
2.056738708E0,-2.034626901E-2,1.372998953E-2,7.755279541E-3,2.574155465E-2
2.061759645E0,-2.494022995E-2,3.919363022E-3,7.706642151E-3,2.639637873E-2
2.066780583E0,-2.010665461E-2,-1.009106636E-3,-1.842498779E-3,2.021609897E-2
2.071801520E0,-1.055630669E-2,-5.896866322E-3,-1.814842224E-3,1.222711314E-2
2.076822458E0,-1.081291586E-3,8.249938488E-3,-1.128482819E-2,1.402062851E-2
2.081843395E0,-1.242499799E-3,3.336966038E-3,-1.118183136E-2,1.173509696E-2
2.086864333E0,-6.099119782E-3,-1.092863083E-2,-6.340026855E-3,1.402961776E-2
2.091885270E0,-6.110768765E-3,-1.436412334E-3,-1.577568054E-2,1.697871820E-2
2.096906208E0,3.430690616E-3,1.277673244E-2,-2.038860321E-2,2.430451956E-2
2.101927145E0,3.331083804E-3,3.181219101E-3,-5.972862244E-3,7.542635989E-3
2.106948083E0,3.240853548E-3,-6.386458874E-3,-2.016448975E-2,2.139851947E-2
2.111969020E0,-1.536857337E-3,3.067553043E-3,-5.743026733E-3,6.689855619E-3
2.116989958E0,-6.283279508E-3,2.997815609E-3,-1.043987274E-2,1.254820476E-2
2.122010895E0,-6.245929748E-3,2.980589867E-3,-5.605697632E-3,8.906143964E-3
2.127031833E0,-6.252072752E-3,3.014862537E-3,-1.031208038E-2,1.243047914E-2
2.132052770E0,-6.210707128E-3,-1.751184464E-3,8.767127991E-3,1.088586530E-2
2.137073708E0,-6.277423352E-3,-1.117420197E-2,1.343822479E-2,1.857026438E-2
2.142094645E0,-1.578885689E-2,-6.273090839E-3,3.824234009E-3,1.741448927E-2
2.147115583E0,-1.092378423E-2,-6.213068962E-3,-9.574890137E-4,1.260349447E-2
2.152136520E0,-1.084776223E-2,-1.353323460E-3,8.543014526E-3,1.387402346E-2
2.157157458E0,-1.082837954E-2,-1.334130764E-3,1.322078705E-2,1.714126362E-2
2.162178395E0,-1.554912701E-2,-1.076078415E-2,1.785469055E-2,2.600691833E-2
2.167199333E0,-1.548202708E-2,-5.863249302E-3,1.295280457E-2,2.102013323E-2
2.172220270E0,-1.536802202E-2,-1.530367136E-2,8.095741272E-3,2.314993488E-2
2.177241208E0,-5.805429071E-3,-2.471727133E-2,1.278018951E-2,2.842498465E-2
2.182262145E0,-1.023568213E-3,-2.925205231E-2,3.175735474E-3,2.944173147E-2
2.187283083E0,3.726989031E-3,-3.854960203E-2,7.901191711E-3,3.952709317E-2
2.192304020E0,1.312617213E-2,-3.832411766E-2,1.734066010E-2,4.406509823E-2
2.197324958E0,-1.079246402E-2,-3.804874420E-2,-1.793861389E-3,3.959043008E-2
2.202345895E0,-2.031802386E-2,-2.838218212E-2,2.982139587E-3,3.503232096E-2
2.207366833E0,-1.541523263E-2,-4.253864288E-2,-6.526947021E-3,4.571396475E-2
2.212387770E0,-5.908261985E-3,-3.758311272E-2,3.036499023E-3,3.816566844E-2
2.217408708E0,-2.016702667E-2,-4.691457748E-2,-1.122188568E-2,5.228400581E-2
2.222429645E0,-5.824483931E-3,-3.727734089E-2,-1.610755920E-3,3.776399464E-2
2.227450583E0,-1.150202006E-3,-4.191422462E-2,-1.580238342E-3,4.195977054E-2
2.232471520E0,-6.007608026E-3,-2.757036686E-2,7.950782776E-3,2.931606095E-2
2.237492458E0,-1.077280194E-2,-2.289479971E-2,3.161430359E-3,2.549940700E-2
2.242513395E0,-2.024679258E-2,-3.260713816E-2,2.691173553E-2,4.687642881E-2
2.247534333E0,-2.498827502E-2,-3.269016743E-2,1.721954346E-2,4.460463666E-2
2.252555270E0,-1.059703901E-2,-3.277236223E-2,7.608413696E-3,3.527340246E-2
2.257576208E0,-5.874473602E-3,-3.300905228E-2,2.839088440E-3,3.364769525E-2
2.262597145E0,-1.143783331E-3,-3.329533339E-2,2.861976624E-3,3.343767898E-2
2.267618083E0,3.551766276E-3,-2.867567539E-2,2.872467041E-3,2.903722559E-2
2.272639020E0,3.403674811E-3,-2.414613962E-2,-1.135921478E-2,2.690079592E-2
2.277659958E0,3.304287791E-3,-2.440261841E-2,3.018379211E-3,2.480960935E-2
2.282680895E0,-1.590248197E-3,-2.455365658E-2,7.771492004E-3,2.580323679E-2
2.287701833E0,-6.344776601E-3,-1.061302423E-2,1.724624634E-2,2.122087383E-2
2.292722770E0,-1.610156149E-3,8.011519909E-3,2.894401550E-3,8.669176109E-3
2.297743708E0,3.089297563E-3,7.434964180E-3,1.241016388E-2,1.479305984E-2
2.302764645E0,-6.491642445E-3,1.171499491E-2,1.708889008E-2,2.171204024E-2
2.307785583E0,-6.500009447E-3,1.595956087E-2,2.172946930E-2,2.773314879E-2
2.312806520E0,-1.811545342E-3,5.871474743E-3,1.683807373E-2,1.792419145E-2
2.317827458E0,2.829302102E-3,1.486182213E-2,1.198768616E-2,1.930241764E-2
2.322848395E0,2.691544592E-3,9.634912014E-3,7.168769836E-3,1.230720126E-2
2.327869333E0,-1.159567013E-2,-3.483891487E-4,7.143020630E-3,1.362364432E-2
2.332890270E0,-2.106277645E-2,3.996849060E-3,1.186561584E-2,2.450322822E-2
2.337911208E0,-1.140523702E-2,-1.191139221E-3,2.304077148E-3,1.169645312E-2
2.342932145E0,-1.823890954E-3,-1.587569714E-3,-7.178306580E-3,7.574631421E-3
2.347953083E0,-1.815080643E-3,-1.980900764E-3,-1.183319092E-2,1.213436825E-2
2.352974020E0,-1.136366278E-2,7.178187370E-3,-1.645374298E-2,2.124581991E-2
2.357994958E0,-1.608849317E-2,2.067387104E-3,-1.629066467E-2,2.298911606E-2
2.363015895E0,2.968572080E-3,1.695930958E-3,-1.612567902E-2,1.648411738E-2
2.368036833E0,2.877127379E-3,1.327395439E-3,-1.596164703E-2,1.627310716E-2
2.373057770E0,-1.140301302E-2,9.100437164E-4,-1.548767090E-3,1.154363743E-2
2.378078708E0,-1.616631448E-2,1.004469395E-2,-6.254196167E-3,2.003398538E-2
2.383099645E0,-1.900218427E-3,4.909694195E-3,-1.092529297E-2,1.212756998E-2
2.388120583E0,-2.002812922E-3,2.350836992E-2,-6.055831909E-3,2.435832129E-2
2.393141520E0,-2.579530701E-2,2.295804024E-2,-5.974769592E-3,3.504521860E-2
2.398162458E0,7.639873773E-3,8.218765259E-3,-1.539611816E-2,1.905141014E-2
2.403183395E0,1.226234064E-2,1.269942522E-2,-5.753517151E-3,1.856726578E-2
2.408204333E0,-2.152033150E-3,1.244610548E-2,-1.044178009E-2,1.638803099E-2
2.413225270E0,-2.196457237E-3,2.164000273E-2,-5.589485168E-3,2.245788251E-2
2.418246208E0,-2.240505069E-3,1.646006107E-2,-7.734298706E-4,1.662984267E-2
2.423267145E0,2.451337874E-3,1.612406969E-2,3.998756409E-3,1.679240107E-2
2.428288083E0,7.117062807E-3,2.064234018E-2,-1.502037048E-2,2.650227010E-2
2.433309020E0,-7.301818579E-3,1.562595367E-2,8.855819702E-3,1.938846372E-2
2.438329958E0,2.198033035E-3,1.065117121E-2,8.790969849E-3,1.398427503E-2
2.443350895E0,-2.631131560E-3,5.718052387E-3,8.726119995E-3,1.075937482E-2
2.448371833E0,-1.215986162E-2,1.512289047E-2,-8.401870728E-4,1.942343855E-2
2.453392770E0,-1.212086156E-2,7.072091103E-4,-8.296966553E-4,1.216979154E-2
2.458413708E0,2.210706472E-3,6.573200226E-4,-1.506423950E-2,1.523977049E-2
2.463434645E0,1.167433336E-2,5.304634571E-3,-6.847381592E-4,1.284126449E-2
2.468455583E0,2.073790878E-3,-9.029388428E-3,-1.492118835E-2,1.756338025E-2
2.473476520E0,-7.403705269E-3,-2.799218893E-2,-5.295753479E-3,2.943505559E-2
2.478497458E0,-2.608451992E-3,-2.780288458E-2,-1.474475861E-2,3.157866873E-2
2.483518395E0,2.202920616E-3,-3.241556883E-2,-9.865760803E-3,3.395519398E-2
2.488539333E0,-7.279988378E-3,-3.218924999E-2,-1.452827454E-2,3.605851920E-2
2.493560270E0,-1.678732783E-2,-3.196477890E-2,-1.583099365E-4,3.610521469E-2
2.498581208E0,-2.620676160E-2,-3.179425001E-2,2.359390259E-2,4.747990024E-2
2.503602145E0,-1.181387529E-2,-4.112178087E-2,1.865768433E-2,4.667630765E-2
2.508623083E0,-2.133516595E-2,-3.142935038E-2,1.376628876E-2,4.040425816E-2
2.513644020E0,-1.172270998E-2,-1.706951857E-2,8.914947510E-3,2.254477063E-2
2.518664958E0,-1.643587649E-2,-2.187520266E-2,1.835441589E-2,3.294764195E-2
2.523685895E0,-1.156101376E-2,-7.595002651E-3,8.716583252E-3,1.634992134E-2
2.528706833E0,-6.834585220E-3,-7.730901241E-3,1.340961456E-2,1.692028817E-2
2.533727770E0,-2.031084150E-3,-7.917940617E-3,3.821372986E-3,9.023412765E-3
2.538748708E0,2.723738551E-3,-7.999598980E-3,-5.695343018E-3,1.019064608E-2
2.543769645E0,2.690430731E-3,6.061434746E-3,3.870010376E-3,7.678306389E-3
2.548790583E0,2.648733556E-3,1.530891657E-2,-8.935928345E-4,1.556204434E-2
2.553811520E0,-7.040474564E-3,1.028537750E-2,1.337242126E-2,1.828056134E-2
2.558832458E0,-2.609420195E-2,5.252003670E-3,8.529663086E-3,2.795077942E-2
2.563853395E0,-3.068758920E-2,5.060613155E-3,-1.026153564E-3,3.111898018E-2
2.568874333E0,-1.624868810E-2,1.223087311E-4,-1.005172729E-3,1.628020874E-2
2.573895270E0,-1.137536764E-2,-2.634525299E-5,-1.048183441E-2,1.546830746E-2
2.578916208E0,-1.134289801E-2,4.626512527E-3,-1.988315582E-2,2.335392556E-2
2.583937145E0,-1.611093804E-2,4.440307617E-3,-1.970386505E-2,2.583642689E-2
2.588958083E0,-1.789156348E-3,9.055733681E-3,-2.902793884E-2,3.046027949E-2
2.593979020E0,-1.836564392E-3,1.363289356E-2,-2.402877808E-2,2.768773973E-2
2.598999958E0,-1.613776013E-2,3.926753998E-3,-9.574890137E-3,1.917094729E-2
2.604020895E0,-1.606558636E-2,-1.044732332E-2,4.758834839E-3,1.974578787E-2
2.609041833E0,-2.074685693E-2,-1.520442963E-2,-2.098083496E-5,2.572172609E-2
2.614062770E0,-6.343394518E-3,-1.517343521E-2,4.735946655E-3,1.711435014E-2
2.619083708E0,3.144163638E-3,-1.029092073E-2,9.445190430E-3,1.431783632E-2
2.624104645E0,-6.441354752E-3,-1.030105352E-2,-1.220703125E-4,1.214980065E-2
2.629125583E0,-1.124152169E-2,-5.511224270E-3,-1.173019409E-4,1.252034994E-2
2.634146520E0,-1.121015474E-2,-1.025795937E-2,-1.125335693E-4,1.519559026E-2
2.639167458E0,-1.686401665E-3,-1.976513863E-2,-9.599685669E-3,2.203766368E-2
2.644188395E0,3.013849258E-3,-1.964455843E-2,4.729270935E-3,2.042934083E-2
2.649209333E0,7.670573890E-3,-2.437680960E-2,4.702568054E-3,2.598423938E-2
2.654230270E0,2.739775926E-3,-5.275309086E-3,9.420394897E-3,1.113907977E-2
2.659251208E0,2.650290728E-3,-1.007550955E-2,1.409912109E-2,1.753069164E-2
2.664272145E0,-1.637639478E-2,-1.488763094E-2,4.496574402E-3,2.258422109E-2
2.669293083E0,7.440268993E-3,-2.440822124E-2,-2.775192261E-4,2.551854000E-2
2.674314020E0,2.610497177E-3,-5.306303501E-3,-9.763717651E-3,1.141497853E-2
2.679334958E0,-2.222083509E-3,-5.306243896E-3,1.406383514E-2,1.519491159E-2
2.684355895E0,-7.010035217E-3,-6.095767021E-4,1.395511627E-2,1.562873788E-2
2.689376833E0,-1.170635223E-2,3.996253014E-3,-5.143165588E-3,1.339630072E-2
2.694397770E0,-2.174124122E-3,8.615553379E-3,-3.433227539E-4,8.892268903E-3
2.699418708E0,-2.162240446E-3,8.447706699E-3,-3.318786621E-4,8.726349504E-3
2.704439645E0,-2.206534147E-3,1.302993298E-2,9.176254272E-3,1.608886537E-2
2.709460583E0,-1.169571280E-2,1.762568951E-2,1.860046387E-2,2.816792297E-2
2.714481520E0,-1.635298878E-2,7.989227772E-3,8.947372437E-3,2.028061823E-2
2.719502458E0,-1.147878170E-2,-1.566767693E-3,-6.246566772E-4,1.160204233E-2
2.724523395E0,-6.649553776E-3,-1.109468937E-2,-5.364418030E-3,1.400305961E-2
2.729544333E0,-6.665144116E-3,-1.099431515E-2,-5.319595337E-3,1.391392131E-2
2.734565270E0,-1.927759498E-3,-6.146430969E-3,-5.275726318E-3,8.326353255E-3
2.739586208E0,2.774506807E-3,-1.558464766E-2,-5.231857300E-3,1.667187636E-2
2.744607145E0,2.745151520E-3,-2.964121103E-2,-4.444122314E-4,2.977137468E-2
2.749628083E0,-6.845735013E-3,-3.428995609E-2,-1.942253113E-2,3.999874863E-2
2.754649020E0,2.693388611E-3,-3.409987688E-2,-2.400112152E-2,4.178647843E-2
2.759669958E0,2.604287118E-3,-2.911120653E-2,-2.379703522E-2,3.769009873E-2
2.764690895E0,2.567656338E-3,-2.896428108E-2,-1.409339905E-2,3.231325323E-2
2.769711833E0,-2.264562994E-3,-3.361898661E-2,2.822875977E-4,3.369635280E-2
2.774732770E0,-3.079900891E-2,-2.873790264E-2,1.453781128E-2,4.456224809E-2
2.779753708E0,-1.630743966E-2,-2.869772911E-2,1.443386078E-2,3.602538801E-2
2.784774645E0,-3.043631837E-2,-1.916050911E-2,2.382755280E-2,4.314217029E-2
2.789795583E0,-1.600817963E-2,-4.954397678E-3,2.364635468E-2,2.898202824E-2
2.794816520E0,-2.074600384E-2,-1.940935850E-2,-2.717971802E-4,2.841115531E-2
2.799837406E0,-2.544000000E-2,-2.894383669E-2,4.495620728E-3,3.879626126E-2
2.804858291E0,-2.049443498E-2,-1.950824261E-2,1.398086548E-2,3.156038647E-2
2.809879176E0,-1.559442654E-2,-1.009941101E-2,4.387855530E-3,1.909024667E-2
2.814900062E0,-6.025437266E-3,-5.518019199E-3,-3.757476807E-4,8.178974046E-3
2.819920947E0,-1.293387264E-3,-1.986491680E-2,-2.410316467E-2,3.126100314E-2
2.824941833E0,-1.400992274E-3,-1.989853382E-2,-3.813076019E-2,4.303335103E-2
2.829962718E0,8.045382798E-3,-1.523524523E-2,-4.253959656E-2,4.589616713E-2
2.834983603E0,1.271190494E-2,-1.535916328E-2,-2.317047119E-2,3.056741990E-2
2.840004489E0,1.734390482E-2,-2.967602015E-2,-1.821231842E-2,3.889943121E-2
2.845025374E0,-1.913003623E-3,-1.538228989E-2,-8.546829224E-3,1.770092412E-2
2.850046260E0,2.681363374E-3,-1.545321941E-2,1.053524017E-2,1.889399337E-2
2.855067145E0,7.396936417E-3,-1.082700491E-2,1.996517181E-2,2.388612127E-2
2.860088031E0,-2.275727689E-3,-6.342768669E-3,1.982879639E-2,2.094255995E-2
2.865108916E0,-2.262983471E-3,-1.792609692E-3,2.443313599E-2,2.460310301E-2
2.870129801E0,2.442091703E-3,-1.162910461E-2,2.900791168E-2,3.134738946E-2
2.875150687E0,2.312079072E-3,-1.188689470E-2,2.404785156E-2,2.692476815E-2
2.880171572E0,1.177923754E-2,-7.342159748E-3,2.387332916E-2,2.761509718E-2
2.885192458E0,-2.574983984E-3,-1.238399744E-2,9.459495544E-3,1.579480899E-2
2.890213343E0,1.163404435E-2,-1.738399267E-2,-8.583068848E-5,2.091797208E-2
2.895234228E0,1.977819949E-3,-2.709072828E-2,-5.531311035E-5,2.716288626E-2
2.900255114E0,-2.849455923E-3,-3.666478395E-2,-4.777908325E-3,3.708441977E-2
2.905275999E0,-1.708612591E-2,-1.771956682E-2,-1.420497894E-2,2.842006639E-2
2.910296885E0,-2.170279250E-2,-8.429467678E-3,-1.880455017E-2,2.992788390E-2
2.915317770E0,-1.678835228E-2,-2.765583992E-2,-3.286743164E-2,4.611900169E-2
2.920338656E0,-2.145921439E-2,-1.828277111E-2,-1.356887817E-2,3.128693108E-2
2.925359541E0,-2.608678490E-2,-9.039819241E-3,-3.924369812E-3,2.788618577E-2
2.930380426E0,-1.648638770E-2,-1.891940832E-2,8.955001831E-4,2.511069316E-2
2.935401312E0,-2.590388432E-2,-2.866518497E-2,-3.826141357E-3,3.882452073E-2
2.940422249E0,-1.630500704E-2,-5.089938641E-3,-3.759384155E-3,1.748981701E-2
2.945443187E0,-1.623575389E-2,-1.500225067E-2,-3.688812256E-3,2.241148290E-2
2.950464124E0,-6.665699184E-3,-1.533514261E-2,1.129150391E-3,1.675926983E-2
2.955485062E0,-1.142089069E-2,-1.086503267E-2,5.903244019E-3,1.683252711E-2
2.960505999E0,-1.613646746E-2,-2.078109980E-2,1.064586639E-2,2.838263839E-2
2.965526937E0,-1.601251587E-2,-4.016333818E-2,1.060485840E-2,4.451918036E-2
2.970547874E0,2.204231918E-2,-4.033809900E-2,-8.434295654E-3,4.673503407E-2
2.975568812E0,2.649318054E-2,-4.051154852E-2,-3.572463989E-3,4.853696197E-2
2.980589749E0,2.151339874E-2,-3.603851795E-2,-1.298809052E-2,4.393508389E-2
2.985610687E0,2.611945197E-2,-3.160262108E-2,6.166458130E-3,4.146054312E-2
2.990631624E0,1.159407198E-2,-3.675252199E-2,2.041721344E-2,4.361230311E-2
2.995652562E0,-2.702441067E-3,-4.191142321E-2,6.062507629E-3,4.243376700E-2
3.000673499E0,-2.750910819E-3,-4.233002663E-2,1.082611084E-2,4.377902855E-2
3.005694437E0,-1.229157299E-2,-3.319662809E-2,3.928756714E-2,5.288300119E-2
3.010715374E0,-1.219962910E-2,-2.413946390E-2,2.477550507E-2,3.667929005E-2
3.015736312E0,-2.155812457E-2,-2.465468645E-2,2.937793732E-2,4.399624416E-2
3.020757249E0,-2.139773965E-2,-2.521717548E-2,1.495265961E-2,3.629533346E-2
3.025778187E0,-6.993189454E-3,-2.107816935E-2,1.489830017E-2,2.674234974E-2
3.030799124E0,-1.169386506E-2,-2.728521824E-3,5.989074707E-4,1.202289489E-2
3.035820062E0,-1.640710235E-2,-2.251976728E-2,1.016044617E-2,2.965750482E-2
3.040840999E0,-6.839945912E-3,-1.840341091E-2,-4.099845886E-3,2.005689731E-2
3.045861937E0,7.499430329E-3,-1.901817322E-2,-8.749008179E-3,2.223685031E-2
3.050882874E0,-2.131059766E-3,-1.493084431E-2,-3.857612610E-3,1.556768135E-2
3.055903812E0,-2.132564783E-3,-6.129086018E-3,5.741119385E-3,8.664524208E-3
3.060924749E0,-1.167833805E-2,-2.149343491E-3,2.000904083E-2,2.326725106E-2
3.065945687E0,-6.894644350E-3,6.545543671E-3,1.516342163E-2,1.789719582E-2
3.070966624E0,-2.103518695E-3,5.671143532E-3,1.035881042E-2,1.199548304E-2
3.075987562E0,-6.896588951E-3,1.430088282E-2,1.509189606E-2,2.190533075E-2
3.081008499E0,-2.109499276E-2,-8.837580681E-4,1.503658295E-2,2.592062064E-2
3.086029437E0,-1.622834429E-2,-1.748323441E-3,7.400512695E-4,1.633901678E-2
3.091050374E0,-6.658181548E-3,-7.302224636E-3,-8.691787720E-3,1.316058661E-2
3.096071312E0,-6.669223309E-3,-1.760989428E-2,1.045036316E-2,2.153594684E-2
3.101092249E0,-6.727427244E-3,-1.353466511E-2,-8.560180664E-3,1.737015054E-2
3.106113187E0,-1.154256240E-2,5.573034286E-5,-1.791954041E-2,2.131534144E-2
3.111134124E0,-1.903511584E-3,-7.648468018E-4,1.295089722E-3,2.426026456E-3
3.116155062E0,-6.646450609E-3,-1.526713371E-3,1.559638977E-2,1.702214832E-2
3.121175999E0,-1.134985685E-2,-7.134139538E-3,1.079368591E-2,1.721100965E-2
3.126196937E0,-1.132176816E-2,-1.269465685E-2,-3.465652466E-3,1.735936329E-2
3.131217874E0,-6.437487900E-3,7.849335670E-4,-8.110046387E-3,1.038413326E-2
3.136238812E0,3.046676517E-3,4.707098007E-3,-7.971763611E-3,9.746179996E-3
3.141259749E0,-1.129518449E-2,1.324188709E-2,-1.732158661E-2,2.455536864E-2
3.146280687E0,-1.122030988E-2,3.130596876E-2,-1.235771179E-2,3.547776874E-2
3.151301624E0,-6.444770843E-3,2.072840929E-2,-2.685546875E-3,2.187268125E-2
3.156322562E0,-1.590732113E-2,2.443289757E-2,-7.335662842E-3,3.006362084E-2
3.161343499E0,-1.108817756E-2,3.295809031E-2,2.289772034E-3,3.484862198E-2
3.166364437E0,-1.580620185E-2,3.196698427E-2,1.183032990E-2,3.757234097E-2
3.171385374E0,-2.048941329E-2,3.583627939E-2,-2.459526062E-3,4.135340671E-2
3.176406312E0,-2.033792064E-2,3.492498398E-2,-2.385139465E-3,4.048548397E-2
3.181427249E0,-1.073331758E-2,4.351794720E-2,-2.311706543E-3,4.488162009E-2
3.186448187E0,-1.545425877E-2,4.264575243E-2,7.249832153E-3,4.593532824E-2
3.191469124E0,-1.529300958E-2,3.713607788E-2,-2.271652222E-3,4.022592232E-2
3.196490062E0,-1.998047158E-2,4.111742973E-2,-2.212524414E-3,4.576852124E-2
3.201510999E0,-1.043963432E-2,4.522097111E-2,-2.166748047E-3,4.646091895E-2
3.206531937E0,-1.041903719E-2,4.448992014E-2,1.212787628E-2,4.727573070E-2
3.211552874E0,-9.533315897E-4,3.901642561E-2,1.205825806E-2,4.084840139E-2
3.216573812E0,3.680448979E-3,3.369212151E-2,1.198005676E-2,3.594755230E-2
3.221594749E0,1.302866265E-2,4.265749454E-2,2.406120300E-3,4.466763153E-2
3.226615687E0,1.284913346E-2,3.260606527E-2,-1.659011841E-2,3.877483401E-2
3.231636624E0,7.983464748E-3,3.688353300E-2,-3.067970276E-2,4.863511979E-2
3.236657562E0,7.902268320E-3,3.178369999E-2,-1.617431641E-2,3.652749568E-2
3.241678499E0,7.830906659E-3,3.622299433E-2,-6.538391113E-3,3.763215348E-2
3.246699437E0,3.002490848E-3,4.537415504E-2,-1.731872559E-3,4.550635428E-2
3.251720374E0,-6.581321359E-3,4.495185614E-2,3.034591675E-3,4.553231718E-2
3.256741312E0,-2.088547125E-2,5.413353443E-2,1.725006104E-2,6.053269418E-2
3.261762249E0,-3.032192215E-2,4.904490709E-2,2.184581757E-2,6.166085971E-2
3.266783187E0,-3.013101965E-2,5.359905958E-2,2.164459229E-2,6.518608677E-2
3.271804124E0,-2.999341860E-2,6.771576405E-2,2.143669128E-2,7.710098309E-2
3.276825062E0,-2.505674213E-2,6.272077560E-2,1.648139954E-2,6.952246075E-2
3.281845999E0,-3.451474011E-2,5.776768923E-2,-1.692295074E-2,6.938846781E-2
3.286866937E0,-3.439232334E-2,4.815876484E-2,-2.631092072E-2,6.476390264E-2
3.291887874E0,-1.996911317E-2,2.443605661E-2,-4.512214661E-2,5.506264122E-2
3.296908812E0,-1.041918248E-2,3.425413370E-2,-4.954051971E-2,6.112420251E-2
3.301929749E0,-5.753640085E-3,2.499651909E-2,-6.816768646E-2,7.283380958E-2
3.306950687E0,-1.126974821E-3,2.061623335E-2,-5.815410614E-2,6.171060858E-2
3.311971624E0,3.508277237E-3,2.582132816E-2,-1.498889923E-2,3.006187116E-2
3.316992562E0,3.412682563E-3,2.623432875E-2,4.074096680E-3,2.676723129E-2
3.322013499E0,-1.430634409E-3,3.614091873E-2,3.247547150E-2,4.860935065E-2
3.327034437E0,3.254272044E-3,2.702301741E-2,5.113887787E-2,5.793115385E-2
3.332055374E0,-1.583158970E-3,1.803231239E-2,5.539703369E-2,5.827951634E-2
3.337076312E0,7.813517004E-3,-5.077242851E-3,5.961513519E-2,6.033899060E-2
3.342097249E0,2.667601034E-2,-2.799391747E-2,4.005527496E-2,5.567489556E-2
3.347118187E0,2.643902600E-2,-4.597115517E-2,2.065849304E-2,5.691346535E-2
3.352139124E0,3.575273231E-2,-4.005604982E-2,1.092052460E-2,5.479053616E-2
3.357160062E0,3.554808348E-2,-6.748163700E-2,6.016731262E-3,7.650907545E-2
3.362180999E0,4.008907825E-2,-6.623917818E-2,-1.308822632E-2,7.852429299E-2
3.367201937E0,3.040751815E-2,-7.450443506E-2,-8.291244507E-3,8.089667941E-2
3.372222874E0,2.075491101E-2,-8.275252581E-2,-1.777458191E-2,8.714747627E-2
3.377243812E0,1.603465527E-2,-9.103530645E-2,1.320838928E-3,9.244610217E-2
3.382264749E0,1.800473779E-3,-9.455215931E-2,-8.228302002E-3,9.492659000E-2
3.387285687E0,-1.231059432E-2,-8.869802952E-2,1.080608368E-2,9.019790805E-2
3.392306624E0,-2.156910300E-2,-8.284044266E-2,1.543140411E-2,8.698214401E-2
3.397327562E0,-3.548545390E-2,-6.769037247E-2,1.528358459E-2,7.794095151E-2
3.402348499E0,-4.453734308E-2,-7.160878181E-2,8.869171143E-4,8.433373693E-2
3.407369437E0,-4.407303035E-2,-8.039802313E-2,5.618095398E-3,9.185770040E-2
3.412390374E0,-4.830937088E-2,-8.921748400E-2,1.031875610E-2,1.019805447E-1
3.417411312E0,-3.837284073E-2,-9.796327353E-2,2.447700500E-2,1.080203760E-1
3.422432249E0,-2.846292779E-2,-1.020429730E-1,1.004028320E-2,1.064129404E-1
3.427453187E0,-2.819774672E-2,-1.155852675E-1,4.720687866E-4,1.189760053E-1
3.432474124E0,-3.278224170E-2,-1.006789207E-1,9.991645813E-3,1.063520260E-1
3.437495062E0,-2.297958545E-2,-9.544563293E-2,1.468753815E-2,9.926557294E-2
3.442515999E0,-1.331035793E-2,-9.980463982E-2,1.459980011E-2,1.017412695E-1
3.447536937E0,-8.413998410E-3,-9.948241711E-2,5.024909973E-3,9.996397553E-2
3.452557874E0,1.063978113E-2,-1.040667892E-1,2.918243408E-4,1.046096874E-1
3.457578812E0,2.963822894E-2,-8.972227573E-2,5.104064941E-3,9.462855201E-2
3.462599749E0,1.994010620E-2,-8.499449492E-2,1.462459564E-2,8.851864662E-2
3.467620687E0,1.501063071E-2,-5.191832781E-2,2.407550812E-2,5.916470137E-2
3.472641624E0,1.491800696E-2,-3.336304426E-2,4.294395447E-2,5.638991824E-2
3.477662562E0,1.003040373E-2,-2.451133728E-2,6.165981293E-2,6.710698313E-2
3.482683499E0,4.350226372E-4,-3.008240461E-2,8.022880554E-2,8.568431333E-2
3.487704437E0,-4.331883043E-3,-3.091037273E-2,7.015705109E-2,7.678690103E-2
3.492725374E0,5.181958899E-3,-3.642803431E-2,5.541610718E-2,6.651916503E-2
3.497746312E0,-4.321269691E-3,-3.715145588E-2,4.554653168E-2,5.893547822E-2
3.502767249E0,5.248710513E-3,-4.272085428E-2,3.102016449E-2,5.305535748E-2
3.507788187E0,4.416927695E-4,-5.779266357E-2,-2.374649048E-3,5.784311552E-2
3.512809124E0,-4.320750013E-3,-5.369323492E-2,-7.004737854E-3,5.432033422E-2
3.517830062E0,-1.859674044E-2,-4.023426771E-2,-3.532981873E-2,5.668184140E-2
3.522850999E0,-8.907780051E-3,-5.062991381E-2,-2.543163300E-2,5.735420363E-2
3.527871937E0,-1.364853978E-2,-2.775114775E-2,-3.935241699E-2,5.005019043E-2
3.532892874E0,-2.310278267E-2,-2.885699272E-2,-2.466201782E-2,4.443736850E-2
3.537913812E0,-2.777243964E-2,-2.045696974E-2,-5.970001221E-4,3.449858582E-2
3.542934749E0,-2.290162072E-2,-1.217877865E-2,9.026527405E-3,2.746425090E-2
3.547955687E0,-4.176215082E-2,5.527555943E-3,2.331924438E-2,4.814995612E-2
3.552976624E0,-3.673207015E-2,1.838976145E-2,1.374530792E-2,4.331699197E-2
3.557997562E0,-3.653958067E-2,1.215064526E-2,-1.474189758E-2,4.123230142E-2
3.563018499E0,-2.685168386E-2,1.071208715E-2,-2.874660492E-2,4.076921671E-2
3.568039437E0,-2.668976411E-2,1.883429289E-2,-5.213642120E-2,6.152463338E-2
3.573060374E0,-2.652917244E-2,3.168904781E-2,-4.684448242E-2,6.246917860E-2
3.578081312E0,-1.217611693E-2,3.958481550E-2,-5.108356476E-2,6.576280126E-2
3.583102249E0,-1.699295267E-2,4.276996851E-2,-3.630256653E-2,5.861661013E-2
3.588123187E0,-2.723919228E-3,4.608374834E-2,-2.640628815E-2,5.318292631E-2
3.593144124E0,-1.236800104E-2,4.462146759E-2,-1.184463501E-2,4.779475074E-2
3.598165062E0,1.135952026E-2,4.797160625E-2,-2.157211304E-3,4.934538750E-2
3.603185999E0,1.589531265E-2,5.609411001E-2,1.219367981E-2,5.956421719E-2
3.608206937E0,1.399317756E-3,6.894904375E-2,7.427215576E-3,6.936203757E-2
3.613227874E0,1.081835106E-2,5.330932140E-2,-1.155471802E-2,5.560963924E-2
3.618248812E0,5.861686543E-3,6.159412861E-2,-1.613807678E-2,6.394242387E-2
3.623269749E0,8.946154267E-4,6.506139040E-2,-2.068233490E-2,6.827549952E-2
3.628290687E0,1.021446288E-2,7.810020447E-2,-1.095199585E-2,7.952309981E-2
3.633311624E0,1.476451755E-2,9.118533134E-2,-2.031135559E-2,9.457963204E-2
3.638332562E0,2.395946160E-2,8.521962166E-2,-2.484893799E-2,9.194514362E-2
3.643353499E0,2.359948121E-2,8.410322666E-2,-2.460479736E-2,9.075067108E-2
3.648374437E0,2.329422906E-2,9.259647131E-2,-1.487541199E-2,9.663335598E-2
3.653395374E0,2.298684791E-2,1.106195450E-1,-1.473331451E-2,1.139392358E-1
3.658416312E0,2.278075367E-2,1.143504977E-1,4.391670227E-3,1.166802718E-1
3.663437249E0,3.676548600E-2,9.910827875E-2,-3.900527954E-4,1.057085806E-1
3.668458187E0,2.219437808E-2,9.834200144E-2,-3.929138184E-4,1.008161398E-1
3.673479124E0,2.673869208E-2,8.818852901E-2,1.384067535E-2,9.318657949E-2
3.678500062E0,3.125926852E-2,8.771955967E-2,1.844882965E-2,9.493272530E-2
3.683520999E0,3.573748097E-2,7.311254740E-2,4.200363159E-2,9.158011356E-2
3.688541937E0,1.173906773E-2,7.772469521E-2,5.110740662E-2,9.375980465E-2
3.693562874E0,1.637995243E-2,6.325274706E-2,4.114532471E-2,7.721496356E-2
3.698583812E0,2.039864659E-3,3.945612907E-2,3.126239777E-2,5.038139223E-2
3.703604749E0,6.855558604E-3,4.440087080E-2,1.670837402E-2,4.793334720E-2
3.708625687E0,2.087131143E-3,2.566516399E-2,1.176261902E-2,2.830929115E-2
3.713646624E0,-2.589862794E-3,1.658260822E-2,6.858825684E-3,1.813101692E-2
3.718667562E0,-7.176153362E-3,2.878963947E-3,-2.758026123E-3,8.209282464E-3
3.723688499E0,-6.980437785E-3,3.535211086E-3,-7.546424866E-3,1.087072938E-2
3.728709437E0,-1.163357869E-2,-5.627274513E-4,-2.797126770E-3,1.197834435E-2
3.733730374E0,-1.139132306E-2,-1.412367821E-2,-1.233291626E-2,2.193949294E-2
3.738751312E0,-3.489359841E-2,-3.880858421E-3,-2.178478241E-2,4.131828913E-2
3.743772249E0,-3.932352364E-2,-2.211040258E-2,-3.591537476E-2,5.766388435E-2
3.748793187E0,-5.319948122E-2,-3.544008732E-2,-3.093338013E-2,7.101449568E-2
3.753814124E0,-4.316092283E-2,-4.401379824E-2,-4.972648621E-2,7.920102982E-2
3.758835062E0,-3.801092505E-2,-4.771572351E-2,-4.937362671E-2,7.848169027E-2
3.763855999E0,-5.659931526E-2,-5.613511801E-2,-3.477859497E-2,8.697232105E-2
3.768876937E0,-6.083435938E-2,-4.554224014E-2,-2.504825592E-2,8.001456144E-2
3.773897874E0,-5.554177240E-2,-4.453450441E-2,-1.539897919E-2,7.283775892E-2
3.778918812E0,-5.514056236E-2,-4.833543301E-2,-1.532268524E-2,7.491048247E-2
3.783939749E0,-5.944414809E-2,-4.740780592E-2,1.799678802E-2,7.813444301E-2
3.788960687E0,-5.901043862E-2,-5.128824711E-2,2.255249023E-2,8.137156121E-2
3.793981624E0,-5.383648723E-2,-5.038774014E-2,4.606437683E-2,8.694376646E-2
3.799002562E0,-4.400888085E-2,-5.899167061E-2,4.563903809E-2,8.660092720E-2
3.804023499E0,-3.900704533E-2,-4.873692989E-2,4.998397827E-2,7.997021949E-2
3.809044437E0,-1.030904055E-2,-7.180690765E-2,4.479503632E-2,8.525903813E-2
3.814065374E0,3.857214004E-3,-7.574254274E-2,3.965473175E-2,8.558217473E-2
3.819086312E0,3.707004711E-3,-7.494843006E-2,2.981281281E-2,8.074535813E-2
3.824107249E0,2.724882588E-2,-7.906460762E-2,2.481555939E-2,8.723257807E-2
3.829128187E0,3.164755926E-2,-8.799827099E-2,1.986885071E-2,9.560352992E-2
3.834149124E0,4.080986977E-2,-1.016576886E-1,-4.026412964E-3,1.096172574E-1
3.839170062E0,3.090641275E-2,-9.156441689E-2,-8.718490601E-3,9.703226714E-2
3.844190999E0,2.582939714E-2,-9.590399265E-2,-8.613586426E-3,9.969416951E-2
3.849211937E0,2.085100673E-2,-9.081405401E-2,-3.752708435E-3,9.325255872E-2
3.854232874E0,3.021130897E-2,-9.051501751E-2,1.531314850E-2,9.664462790E-2
3.859253812E0,1.095089875E-2,-8.552169800E-2,9.851455688E-4,8.622559669E-2
3.864274749E0,1.079326868E-2,-7.592493296E-2,1.031875610E-3,7.669520755E-2
3.869295687E0,1.243384555E-3,-7.590514421E-2,1.532268524E-2,7.744624979E-2
3.874316624E0,-1.307425834E-2,-6.169182062E-2,2.000331879E-2,6.615851967E-2
3.879337562E0,-1.772385836E-2,-6.664276123E-2,3.414535522E-2,7.694997117E-2
3.884358499E0,-1.763793826E-2,-6.685566902E-2,1.018619537E-2,6.988945502E-2
3.889379437E0,-2.714858949E-2,-6.237018108E-2,5.426406860E-3,6.823878143E-2
3.894400374E0,-1.279034652E-2,-5.322515965E-2,-4.037857056E-3,5.488911434E-2
3.899421312E0,-1.284897327E-2,-4.420804977E-2,5.575180054E-3,4.637381170E-2
3.904442249E0,-1.296803169E-2,-5.900824070E-2,-3.885269165E-3,6.054120607E-2
3.909463187E0,-1.297343895E-2,-6.898868084E-2,-4.650211334E-2,8.420329416E-2
3.914484124E0,-3.547327593E-3,-7.898890972E-2,-1.077489853E-1,1.336475784E-1
3.919505062E0,2.474253252E-2,-5.102103949E-2,-1.114940643E-1,1.250850341E-1
3.924525999E0,2.431027591E-2,-2.328628302E-2,-8.671665192E-2,9.302160078E-2
3.929546937E0,9.636137635E-3,9.121119976E-3,-5.741024017E-2,5.892355772E-2
3.934567874E0,1.407829672E-2,2.706468105E-2,-9.359359741E-3,3.191070375E-2
3.939588812E0,-9.951213375E-3,5.440729856E-2,7.627487183E-2,9.421802830E-2
3.944609749E0,-5.456358194E-4,7.682538033E-2,1.232023239E-1,1.451938339E-1
3.949630687E0,4.084773362E-3,9.915995598E-2,1.412382126E-1,1.726198567E-1
3.954651624E0,3.979787230E-3,9.286904335E-2,1.401252747E-1,1.681534731E-1
3.959672562E0,-1.041689143E-2,1.104762554E-1,1.295166016E-1,1.705522346E-1
3.964693499E0,3.797397017E-3,9.474891424E-2,1.189908981E-1,1.521532478E-1
3.969714437E0,1.789790764E-2,5.546164513E-2,7.530879974E-2,9.522470529E-2
3.974735374E0,1.289159060E-2,2.119821310E-2,1.300144196E-2,2.801062012E-2
3.979756312E0,3.165544942E-2,-3.178596497E-3,-7.253837585E-2,7.920850286E-2
3.984777249E0,2.662860975E-2,-2.735251188E-2,-1.146287918E-1,1.208180561E-1
3.989798187E0,3.578571230E-2,-3.713107109E-2,-9.938144684E-2,1.119643051E-1
3.994819124E0,3.072444350E-2,-3.253090382E-2,-1.175060272E-1,1.257374947E-1
3.999840062E0,1.146456227E-2,-1.852381229E-2,-1.022348404E-1,1.045300454E-1
4.004860999E0,-1.238800585E-2,4.863679409E-3,-5.860042572E-2,6.009266146E-2
4.009881937E0,-1.219119504E-2,3.760486841E-2,-2.008247375E-2,4.434024263E-2
4.014902874E0,-3.105113655E-2,6.062823534E-2,-8.840560913E-4,6.812295910E-2
4.019923812E0,-3.075519577E-2,6.921410561E-2,8.657455444E-3,7.623270962E-2
4.024944749E0,-3.045700118E-2,8.263182640E-2,4.659557343E-2,9.963330326E-2
4.029965687E0,-2.076769248E-2,8.638900518E-2,6.048011780E-2,1.074811701E-1
4.034986624E0,-1.585591957E-2,9.021836519E-2,5.049705505E-2,1.045978784E-1
4.040007562E0,-1.483336091E-3,6.557631493E-2,3.584384918E-2,7.474780859E-2
4.045028499E0,3.263033926E-3,5.543714762E-2,3.080558777E-2,6.350518848E-2
4.050049437E0,1.272780076E-2,3.593683243E-2,2.061843872E-3,3.817989048E-2
4.055070374E0,1.260724291E-2,1.190257072E-2,2.043724060E-3,1.745825225E-2
4.060091312E0,3.143470362E-2,2.365648746E-3,-1.697254181E-2,3.580229128E-2
4.065112249E0,2.171771228E-2,7.153689861E-3,-1.683712006E-2,2.839582570E-2
4.070133135E0,-2.173293382E-3,2.456963062E-3,-1.670742035E-2,1.702638442E-2
4.075154020E0,7.379040122E-3,-6.949305534E-3,-1.657867432E-2,1.943181728E-2
4.080174906E0,2.554558218E-3,7.516980171E-3,-3.070068359E-2,3.171060913E-2
4.085195791E0,-2.122846618E-2,7.617413998E-3,-2.096271515E-2,3.079136566E-2
4.090216676E0,-3.061003983E-2,1.241344213E-2,-1.605033875E-2,3.672439867E-2
4.095237562E0,-3.986644372E-2,7.672667503E-3,-1.592731476E-2,4.361057804E-2
4.100258447E0,-4.424551129E-2,-1.725435257E-3,-2.055835724E-2,4.881893535E-2
4.105279333E0,-4.868204892E-2,-1.600205898E-3,-1.564884186E-2,5.116042218E-2
4.110300218E0,-3.879385442E-2,-6.172537804E-3,-3.452777863E-2,5.229943461E-2
4.115321103E0,-3.853677958E-2,-1.065504551E-2,-3.425979614E-2,5.265308165E-2
4.120341989E0,-2.877539769E-2,-2.464926243E-2,-3.398895264E-2,5.090047693E-2
4.125362874E0,-2.864878252E-2,-2.902966738E-2,-1.472568512E-2,4.336265825E-2
4.130383760E0,-1.417432167E-2,-2.862507105E-2,-1.461791992E-2,3.512818911E-2
4.135404645E0,-1.412240788E-2,-1.408159733E-2,-9.753227234E-3,2.220043309E-2
4.140425531E0,-9.270716459E-3,-4.356145859E-3,-1.443099976E-2,1.769677780E-2
4.145446416E0,-1.870497130E-2,-1.370573044E-2,4.673004150E-3,2.365501989E-2
4.150467301E0,-9.165285155E-3,-1.342886686E-2,3.785896301E-2,4.120240281E-2
4.155488187E0,-1.389891468E-2,-8.405804634E-3,2.328395844E-2,2.838978868E-2
4.160509072E0,-4.244178534E-3,-3.424584866E-3,2.307510376E-2,2.371078334E-2
4.165529958E0,4.781801254E-4,6.315350533E-3,3.710937500E-2,3.764595624E-2
4.170550843E0,5.109488964E-3,1.117390394E-2,1.304340363E-2,1.791907880E-2
4.175571728E0,9.805602953E-3,-3.002047539E-3,1.766777039E-2,2.042822188E-2
4.180592614E0,1.440144889E-2,-1.705950499E-2,8.008956909E-3,2.371859674E-2
4.185613499E0,1.421991922E-2,-2.457499504E-3,-1.107025146E-2,1.818779464E-2
4.190634385E0,9.338404983E-3,-7.022678852E-3,-1.574134827E-2,1.960392489E-2
4.195655270E0,9.199062362E-3,-1.624673605E-2,-1.562881470E-2,2.434828597E-2
4.200676156E0,-3.891251981E-4,-6.296336651E-3,-2.977371216E-2,3.043467117E-2
4.205697093E0,-4.474110901E-4,-1.557821035E-2,-3.428840637E-2,3.766398314E-2
4.210718031E0,-5.146153271E-4,3.760337830E-3,-1.977634430E-2,2.013724816E-2
4.215738968E0,-5.248524249E-4,-8.049607277E-4,-1.013469696E-2,1.018015296E-2
4.220759906E0,-1.488391683E-2,-5.319714546E-4,4.171371460E-3,1.546655468E-2
4.225780843E0,-1.013401151E-2,1.398438215E-2,-6.351470947E-4,1.728191382E-2
4.230801781E0,-1.960340887E-2,9.436964989E-3,8.838653564E-3,2.348343553E-2
4.235822718E0,-1.475309394E-2,1.442456245E-2,1.348495483E-2,2.464884966E-2
4.240843656E0,-1.944019087E-2,5.125164986E-3,1.809310913E-2,2.704716131E-2
4.245864593E0,-2.888845094E-2,1.020044088E-2,1.790904999E-2,3.548697878E-2
4.250885531E0,-9.776348248E-3,5.685091019E-3,1.773166656E-2,2.103114938E-2
4.255906468E0,-9.803455323E-3,-1.783883572E-2,2.230834961E-2,3.019924268E-2
4.260927406E0,-9.788012132E-3,-2.212065458E-2,1.734542847E-2,2.976562496E-2
4.265948343E0,1.392276585E-2,-2.161848545E-2,1.242446899E-2,2.855818187E-2
4.270969281E0,1.374048367E-2,-2.112030983E-2,2.795219421E-3,2.535116625E-2
4.275990218E0,4.119116813E-3,-3.956878185E-2,7.487297058E-3,4.048104788E-2
4.281011156E0,-7.817000151E-4,-4.852145910E-2,1.690292358E-2,5.138727346E-2
4.286032093E0,-5.533568561E-3,-4.310250282E-2,7.241249084E-3,4.405544029E-2
4.291053031E0,3.933932632E-3,-5.197364092E-2,-2.339363098E-3,5.217478123E-2
4.296073968E0,-9.560212493E-4,-5.617821217E-2,-2.328872681E-3,5.623459030E-2
4.301094906E0,-9.579621255E-4,-6.029582024E-2,-2.324104309E-3,6.034819873E-2
4.306115843E0,3.680530936E-3,-5.493366718E-2,2.434730530E-3,5.511063428E-2
4.311136781E0,8.383776993E-3,-6.386166811E-2,-7.093429565E-3,6.479905179E-2
4.316157718E0,-1.249387860E-3,-5.377304554E-2,-2.290725708E-3,5.383631508E-2
4.321178656E0,-1.201849431E-3,-4.376846552E-2,2.470970154E-3,4.385463156E-2
4.326199593E0,-1.080683991E-2,-3.389900923E-2,2.449989319E-3,3.566417058E-2
4.331220531E0,-1.337807626E-3,-1.941502094E-2,2.434730530E-3,1.961276830E-2
4.336241468E0,-1.564310864E-2,-1.934874058E-2,-2.326011658E-3,2.498981673E-2
4.341262406E0,-1.558369771E-2,-1.923131943E-2,7.194519043E-3,2.577705153E-2
4.346283343E0,-6.084140390E-3,-2.381145954E-2,-7.110595703E-3,2.558442771E-2
4.351304281E0,-1.079188287E-2,-1.421183348E-2,-2.294540405E-3,1.799182766E-2
4.356325218E0,3.528960049E-3,-9.440600872E-3,-2.266883850E-3,1.033040494E-2
4.361346156E0,8.186385036E-3,-1.425802708E-2,-6.982803345E-3,1.786246844E-2
4.366367093E0,3.402147442E-3,-9.486258030E-3,-2.167701721E-3,1.030837666E-2
4.371388031E0,8.103054017E-3,-2.369654179E-2,-1.639175415E-2,2.993117407E-2
4.376408968E0,1.757429913E-2,-2.359491587E-2,-1.624679565E-2,3.360854673E-2
4.381429906E0,7.967956364E-3,-1.874548197E-2,-1.135444641E-2,2.331962427E-2
4.386450843E0,3.138463944E-3,-2.343344688E-2,-1.125144958E-2,2.618342045E-2
4.391471781E0,3.154069185E-3,-2.338576317E-2,3.101348877E-3,2.380042933E-2
4.396492718E0,-6.379168481E-3,-2.333849669E-2,1.258563995E-2,2.727228540E-2
4.401513656E0,7.857833058E-3,-1.843965054E-2,1.723289490E-2,2.643367017E-2
4.406534593E0,-1.662898809E-3,-1.838183403E-2,1.709747314E-2,2.515910656E-2
4.411555531E0,3.136586398E-3,-8.827269077E-3,2.171230316E-2,2.364704976E-2
4.416576468E0,7.844347507E-3,-4.100918770E-3,3.103733063E-2,3.227486971E-2
4.421597406E0,-1.680906862E-3,-4.162430763E-3,4.028415680E-2,4.053349932E-2
4.426618343E0,-1.597871259E-2,5.273580551E-3,3.995704651E-2,4.335545495E-2
4.431639281E0,-1.595894247E-2,1.463073492E-2,3.013515472E-2,3.710625014E-2
4.436660218E0,-1.594398171E-2,1.446485519E-2,2.513980865E-2,3.309762178E-2
4.441681156E0,-1.118063927E-2,4.751622677E-3,2.019119263E-2,2.356414378E-2
4.446702093E0,-2.545100451E-2,-8.046627045E-5,1.033782959E-3,2.547211833E-2
4.451723031E0,-2.060380578E-2,-1.911801100E-2,-2.271270752E-2,3.613699268E-2
4.456743968E0,-2.523762733E-2,-2.375149727E-2,-3.201675415E-2,4.718203050E-2
4.461764906E0,-1.089984551E-2,-1.884907484E-2,-6.023597717E-2,6.405050508E-2
4.466785843E0,-2.511618286E-2,-3.298163414E-2,-5.498218536E-2,6.885965103E-2
4.471806781E0,-2.022469416E-2,-2.805399895E-2,-4.976654053E-2,6.060341300E-2
4.476827718E0,-1.062545553E-2,-3.266441822E-2,-2.560043335E-2,4.283977953E-2
4.481848656E0,-1.540343463E-2,-2.773940563E-2,3.112792969E-3,3.188149782E-2
4.486869593E0,-5.839735270E-3,-3.230088949E-2,1.733589172E-2,3.712119491E-2
4.491890531E0,-1.055416465E-2,-2.732717991E-2,3.618907928E-2,4.655979610E-2
4.496911468E0,-5.831103772E-3,-2.249854803E-2,4.064941406E-2,4.682479363E-2
4.501932406E0,8.344963193E-3,-1.290971041E-2,6.406211853E-2,6.588060461E-2
4.506953343E0,3.451332450E-3,-1.769775152E-2,6.354141235E-2,6.605023231E-2
4.511974281E0,3.360889852E-3,-2.719485760E-2,5.352783203E-2,6.013388947E-2
4.516995218E0,2.220883220E-2,-2.241885662E-2,5.309963226E-2,6.176899146E-2
4.522016156E0,2.191034704E-2,-3.667682409E-2,3.368091583E-2,5.440272810E-2
4.527037093E0,3.121941909E-2,-4.606765509E-2,1.442432404E-2,5.748862581E-2
4.532058031E0,2.145693079E-2,-5.073523521E-2,8.583068848E-5,5.508603578E-2
4.537078968E0,2.131524310E-2,-6.011205912E-2,-2.837848663E-2,6.980786305E-2
4.542099906E0,2.582441270E-2,-6.476587057E-2,-2.810478210E-2,7.517577442E-2
4.547120843E0,2.084610239E-2,-5.988365412E-2,-3.733062744E-2,7.358116444E-2
4.552141781E0,2.065777779E-2,-5.504214764E-2,-4.647922516E-2,7.494464738E-2
4.557162718E0,1.425307244E-3,-3.599548340E-2,-3.180980682E-2,4.805798722E-2
4.562183656E0,-1.759518683E-2,-2.185606956E-2,-1.726245880E-2,3.294344943E-2
4.567204593E0,-1.261122152E-2,-7.886111736E-3,-1.707839966E-2,2.264741490E-2
4.572225531E0,-2.676623315E-2,-3.581285477E-3,-2.645492554E-3,2.713402796E-2
4.577246468E0,-3.595599905E-2,1.018482447E-2,6.918907166E-3,3.800573369E-2
4.582267406E0,-2.612223849E-2,4.842042923E-3,1.640319824E-2,3.122309459E-2
4.587288343E0,-3.535978869E-2,1.384085417E-2,1.155853271E-2,3.969236172E-2
4.592309281E0,-3.982820734E-2,1.806801558E-2,2.001762390E-3,4.378066171E-2
4.597330218E0,-4.426869750E-2,8.014798164E-3,2.021789551E-3,4.503378955E-2
4.602351156E0,-4.390971735E-2,1.693540812E-2,-7.445335388E-3,4.764771080E-2
4.607372093E0,-3.407070041E-2,2.118885517E-2,-1.209926605E-2,4.190671126E-2
4.612393031E0,-2.430434898E-2,1.585781574E-2,-1.196193695E-2,3.138884571E-2
4.617413968E0,-2.421981096E-2,1.062291861E-2,-7.081985474E-3,2.737882687E-2
4.622434906E0,-1.453555748E-2,1.972889900E-2,-1.649284363E-2,2.953854732E-2
4.627455843E0,-1.443366148E-2,1.446193457E-2,-2.581977844E-2,3.292626754E-2
4.632476781E0,-9.579433128E-3,1.878738403E-2,-6.583213806E-3,2.209230730E-2
4.637497718E0,-9.570546448E-3,3.262567520E-2,2.198505402E-2,4.048916697E-2
4.642518656E0,-9.608771652E-3,3.690320253E-2,4.081344604E-2,5.585617448E-2
4.647539593E0,-4.898184910E-3,3.169977665E-2,5.473232269E-2,6.343890922E-2
4.652560531E0,-9.784922004E-3,2.184319496E-2,5.903434753E-2,6.370183713E-2
4.657581468E0,-1.462627947E-2,3.106266260E-2,5.855178833E-2,6.787583499E-2
4.662602406E0,-1.936619915E-2,1.181739569E-2,5.806350708E-2,6.233836190E-2
4.667623343E0,-9.821124375E-3,6.926238537E-3,4.333877563E-2,4.497417857E-2
4.672644281E0,4.444627091E-3,-7.421135902E-3,3.823280334E-2,3.919917371E-2
4.677665218E0,9.038075805E-3,-2.706468105E-3,4.684448242E-3,1.053355777E-2
4.682686156E0,1.839816943E-2,-7.528305054E-3,-9.591102600E-3,2.207163937E-2
4.687707093E0,1.817857102E-2,-7.509529591E-3,-1.900482178E-2,2.735026014E-2
4.692728031E0,2.281743661E-2,-1.223957539E-2,-3.308773041E-2,4.201476553E-2
4.697748968E0,3.567021340E-3,-1.698178053E-2,-3.755187988E-2,4.136723575E-2
4.702769906E0,1.777293161E-2,-1.223933697E-2,-4.197406769E-2,4.719640691E-2
4.707790843E0,8.117955178E-3,-1.228493452E-2,-3.686237335E-2,3.969452584E-2
4.712811781E0,3.296632320E-3,-7.581830025E-3,-6.028461456E-2,6.084888400E-2
4.717832718E0,-2.047852054E-2,-2.814471722E-3,-5.502986908E-2,5.878416067E-2
4.722853656E0,-3.451620042E-2,-7.686913013E-3,-2.606678009E-2,4.393101123E-2
4.727874593E0,-3.893989697E-2,-1.246702671E-2,-6.847381592E-3,4.145635013E-2
4.732895531E0,-3.382973745E-2,-2.665263414E-2,-6.786346436E-3,4.359895115E-2
4.737916468E0,-3.366110846E-2,-2.647465467E-2,-6.725311279E-3,4.334982555E-2
4.742937406E0,-4.763596505E-2,-3.589862585E-2,1.708602905E-2,6.204698939E-2
4.747958343E0,-3.300804645E-2,-5.004411936E-2,2.171039581E-2,6.375959770E-2
4.752979281E0,-3.753837198E-2,-5.462664366E-2,3.104877472E-2,7.319307330E-2
4.758000218E0,-1.359635592E-2,-6.877130270E-2,3.557109833E-2,7.861078810E-2
4.763021156E0,-8.791448548E-3,-7.330131531E-2,3.055858612E-2,7.990118634E-2
4.768042093E0,-4.031283781E-3,-6.359964609E-2,2.084350586E-2,6.704936963E-2
4.773063031E0,6.938893348E-4,-5.877918005E-2,3.020858765E-2,6.609109060E-2
4.778083968E0,1.476857439E-2,-6.365090609E-2,2.526378632E-2,7.005574590E-2
4.783104906E0,9.727293625E-3,-5.898487568E-2,2.985763550E-2,6.682300650E-2
4.788125843E0,1.902524196E-2,-6.385469437E-2,3.441333771E-2,7.499106371E-2
4.793146781E0,2.349719405E-2,-5.449020863E-2,2.468967438E-2,6.427192999E-2
4.798167718E0,1.368169859E-2,-4.045510292E-2,1.979637146E-2,4.707122849E-2
4.803188656E0,1.345905662E-2,-5.033171177E-2,5.451202393E-3,5.238456855E-2
4.808209593E0,2.278231457E-2,-4.598379135E-2,1.497745514E-2,5.345902250E-2
4.813230531E0,2.252150327E-2,-4.636853933E-2,1.017379761E-2,5.254298913E-2
4.818251468E0,2.227224410E-2,-3.730517626E-2,1.016330719E-2,4.462086783E-2
4.823272406E0,7.821906358E-3,-2.362012863E-2,6.608963013E-4,2.489034913E-2
4.828293343E0,-1.764215529E-3,-1.949429512E-2,5.478858948E-3,2.032628579E-2
4.833314281E0,-6.460819393E-3,-2.020341158E-2,7.638931274E-4,2.122506913E-2
4.838335218E0,-1.122643426E-2,-2.570664883E-2,-3.907203674E-3,2.832191485E-2
4.843356156E0,-6.507065147E-3,-2.161532640E-2,-1.804065704E-2,2.889687767E-2
4.848377093E0,-1.125815511E-2,-1.761025190E-2,1.188278198E-3,2.093511485E-2
4.853398031E0,-2.073229477E-2,-2.783179283E-2,6.006240845E-3,3.522089817E-2
4.858418968E0,-2.068219706E-2,-1.907759905E-2,6.045341492E-3,2.877940609E-2
4.863439906E0,-1.586984470E-2,-1.984220743E-2,1.557731628E-2,2.980298558E-2
4.868460843E0,-6.302084774E-3,-3.014892340E-2,-3.458023071E-3,3.099406037E-2
4.873481781E0,-1.586451009E-2,-2.137559652E-2,-1.758480072E-2,3.190335442E-2
4.878502718E0,-6.249796599E-3,-3.230154514E-3,6.398200989E-3,9.509512690E-3
4.883523656E0,-6.254434586E-3,4.665851593E-4,2.068996429E-2,2.161967336E-2
4.888544593E0,-1.107347384E-2,-1.000905037E-2,6.361961365E-3,1.622582709E-2
4.893565531E0,-2.529764175E-2,8.041858673E-3,1.590061188E-2,3.094303843E-2
4.898586468E0,-2.045147866E-2,7.051467896E-3,1.585292816E-2,2.681979698E-2
4.903607406E0,-1.461435109E-3,2.016001940E-2,-3.172874451E-3,2.046043272E-2
4.908628343E0,-3.480187431E-2,3.326243162E-2,2.543449402E-2,5.444697695E-2
4.913649281E0,-2.993296459E-2,4.155904055E-2,1.581192017E-2,5.360180071E-2
4.918670218E0,-2.500117570E-2,5.453497171E-2,-3.229141235E-3,6.007952463E-2
4.923691156E0,-2.485419437E-2,5.320882797E-2,-3.121376038E-3,5.881031662E-2
4.928712093E0,-1.531966403E-2,6.133925915E-2,-2.200317383E-2,6.694278510E-2
4.933733031E0,-1.530504227E-2,7.900220156E-2,-2.649211884E-2,8.471968207E-2
4.938753968E0,-9.884946048E-4,7.287871838E-2,-2.145576477E-2,7.597785569E-2
4.943774906E0,3.692504019E-3,7.640743256E-2,-3.071594238E-2,8.243299978E-2
4.948795843E0,1.304573566E-2,8.475810289E-2,-5.415439606E-2,1.014239904E-1
4.953816781E0,2.247618139E-2,8.834248781E-2,-6.315708160E-2,1.108981102E-1
4.958837718E0,3.171494976E-2,9.189736843E-2,-4.834270477E-2,1.085724710E-1
4.963858656E0,2.668779343E-2,8.133208752E-2,-5.265998840E-2,1.004998565E-1
4.968879593E0,4.544503242E-2,6.146126986E-2,-5.695056915E-2,9.532106793E-2
4.973900531E0,3.080646694E-2,5.130475760E-2,-3.746795654E-2,7.060498796E-2
4.978921468E0,3.048369661E-2,6.022685766E-2,-2.289581299E-2,7.127936865E-2
4.983942406E0,2.072804421E-2,4.543513060E-2,5.789756775E-3,5.027448849E-2
4.988963343E0,1.114248857E-2,3.556746244E-2,1.048946381E-2,3.871986941E-2
4.993984281E0,-7.850453258E-3,3.527861834E-2,1.040077209E-2,3.760833137E-2
4.999005218E0,-7.794510573E-3,1.604992151E-2,1.980495453E-2,2.665690529E-2
5.004026156E0,-7.692199200E-3,2.072411776E-2,1.488590240E-2,2.665049860E-2
5.009047093E0,-7.539045066E-3,2.066254616E-2,1.949977875E-2,2.939420666E-2
5.014068031E0,-2.643286064E-2,1.105284691E-2,1.458263397E-2,3.214832437E-2
5.019088968E0,-2.612353116E-2,-3.225326538E-3,1.445579529E-2,3.003017864E-2
5.024109906E0,-3.540745378E-2,-7.836163044E-3,1.432514191E-2,3.899106211E-2
5.029130843E0,-3.037337959E-2,-2.911448479E-3,-5.054473877E-5,3.051264123E-2
5.034151781E0,-3.488797322E-2,-7.472634315E-3,-9.562492371E-3,3.693849211E-2
5.039172718E0,-2.986795455E-2,-7.247328758E-3,-1.424598694E-2,3.387575279E-2
5.044193656E0,-2.968024462E-2,-1.177275181E-2,1.029968262E-4,3.193000492E-2
5.049214593E0,-1.995025575E-2,-6.711602211E-3,9.579658508E-3,2.312635220E-2
5.054235531E0,-1.504985988E-2,-1.796066761E-3,-4.755973816E-3,1.588532106E-2
5.059256468E0,-1.499049738E-2,1.262730360E-2,-1.897716522E-2,2.728179994E-2
5.064277406E0,-1.018797234E-2,3.239750862E-3,1.554489136E-4,1.069181605E-2
5.069298343E0,-6.155781448E-4,-1.081836224E-2,1.344680786E-4,1.083669597E-2
5.074319281E0,-1.007009298E-2,-5.765140057E-3,1.134872437E-4,1.160415838E-2
5.079340218E0,-5.252040923E-3,-1.969635487E-2,-2.365493774E-2,3.122637361E-2
5.084361156E0,4.279222339E-3,-3.826016188E-2,-9.237289429E-3,3.959140370E-2
5.089382093E0,1.372618973E-2,-3.772675991E-2,-4.431724548E-3,4.039005918E-2
5.094403031E0,1.354574040E-2,-4.194629192E-2,3.337860107E-4,4.408049344E-2
5.099423968E0,1.811530069E-2,-4.618239403E-2,5.064010620E-3,4.986603895E-2
5.104444906E0,1.785624772E-2,-3.613805771E-2,1.925182343E-2,4.467032016E-2
5.109465843E0,2.243672684E-2,-4.527425766E-2,1.908588409E-2,5.401329549E-2
5.114486781E0,1.743034273E-2,-4.958581924E-2,1.417255402E-2,5.443740998E-2
5.119507718E0,3.086570650E-3,-4.441672564E-2,9.305000305E-3,4.548577212E-2
5.124528656E0,7.903195918E-3,-5.358779430E-2,1.872825623E-2,5.731369632E-2
5.129549593E0,-1.678884029E-3,-4.848819971E-2,2.332878113E-2,5.383452602E-2
5.134570531E0,-6.432604045E-3,-6.247687340E-2,1.365184784E-2,6.427371978E-2
5.139591468E0,-1.588557288E-2,-6.685227156E-2,8.803367615E-3,6.927537022E-2
5.144612406E0,-2.526457608E-2,-5.704897642E-2,1.350212097E-2,6.383722884E-2
5.149633343E0,-3.456544131E-2,-6.637305021E-2,1.816654205E-2,7.700762805E-2
5.154654281E0,-3.904510662E-2,-6.612229347E-2,3.798484802E-3,7.688372085E-2
5.159675218E0,-3.873412684E-2,-8.491945267E-2,1.329708099E-2,9.427862104E-2
5.164696156E0,-2.892875113E-2,-7.986921072E-2,1.322364807E-2,8.596992690E-2
5.169717093E0,-2.875378542E-2,-6.071901321E-2,-5.833625793E-3,6.743596912E-2
5.174738031E0,-1.428307220E-2,-6.552255154E-2,3.764152527E-3,6.716680546E-2
5.179758968E0,-1.898828149E-2,-6.084042788E-2,-5.706787109E-3,6.398968602E-2
5.184779906E0,-1.889615133E-2,-6.569463015E-2,-8.525848389E-4,6.836355656E-2
5.189800843E0,-1.405147277E-2,-5.636650324E-2,1.346683502E-2,5.963205698E-2
5.194821781E0,2.967268229E-4,-4.241913557E-2,8.678436279E-3,4.329880328E-2
5.199842718E0,5.023548380E-3,-3.813648224E-2,-8.144378662E-4,3.847454516E-2
5.204863656E0,9.617205709E-3,-3.863841295E-2,-5.479812622E-3,4.019261061E-2
5.209884593E0,9.470969439E-3,-3.443920612E-2,4.143714905E-3,3.595731572E-2
5.214905531E0,-2.227537334E-4,-3.507512808E-2,8.944511414E-3,3.619832197E-2
5.219926468E0,4.414657131E-3,-1.671195030E-2,8.956909180E-3,1.946804311E-2
5.224947406E0,4.321467131E-3,-3.353893757E-3,1.847553253E-2,1.926834149E-2
5.229968343E0,-5.242861807E-4,-9.100973606E-3,3.741168976E-2,3.850632581E-2
5.234989281E0,-5.386188626E-3,9.045958519E-3,3.243827820E-2,3.410399223E-2
5.240010218E0,-1.015101001E-2,1.744097471E-2,2.751636505E-2,3.412302666E-2
5.245031156E0,-1.482928544E-2,2.106946707E-2,8.384704590E-3,2.709489657E-2
5.250052093E0,-2.422190830E-2,2.941638231E-2,-1.090049744E-3,3.812102568E-2
5.255073031E0,-1.923906803E-2,4.254567623E-2,-2.948951721E-2,5.522597152E-2
5.260093968E0,-1.408605278E-2,3.171950579E-2,-5.289554596E-2,6.326517772E-2
5.265114906E0,-1.371959597E-2,3.053206205E-2,-5.711746216E-2,6.620301058E-2
5.270135843E0,-2.285318263E-2,2.470946312E-2,-6.131362915E-2,6.994416805E-2
5.275156781E0,-1.761347800E-2,1.898717880E-2,-5.598258972E-2,6.168304401E-2
5.280177718E0,-3.142124414E-2,3.700375557E-2,-5.543899536E-2,7.368890498E-2
5.285198656E0,-3.096202575E-2,3.597933054E-2,-2.167034149E-2,5.218010123E-2
5.290219593E0,-3.076998517E-2,3.501528502E-2,-1.192951202E-2,4.811626990E-2
5.295240531E0,-3.062630817E-2,3.426593542E-2,-1.653480530E-2,4.884183523E-2
5.300261468E0,-3.528400138E-2,4.307150841E-2,7.384300232E-3,5.616621297E-2
5.305282406E0,-2.105901018E-2,4.230648279E-2,2.160835266E-2,5.196384609E-2
5.310303343E0,-1.644955762E-2,3.205084801E-2,3.096485138E-2,4.750438743E-2
5.315324281E0,-1.198682562E-2,3.617799282E-2,3.549003601E-2,5.207757491E-2
5.320345218E0,1.935716718E-3,2.127677202E-2,3.522968292E-2,4.120168183E-2
5.325366156E0,2.052761428E-2,1.604884863E-2,2.546977997E-2,3.643704409E-2
5.330387093E0,2.963251434E-2,1.556098461E-2,6.298065186E-3,3.405724260E-2
5.335408031E0,2.442100085E-2,1.038026810E-2,-1.746749878E-2,3.176867580E-2
5.340428968E0,3.839705139E-2,9.939670563E-3,-2.203655243E-2,4.537334294E-2
5.345449906E0,2.846243978E-2,9.606122971E-3,-2.657699585E-2,4.010891154E-2
5.350470843E0,1.861558855E-2,9.223520756E-3,-2.157783508E-2,2.995357139E-2
5.355491781E0,1.839452609E-2,2.308976650E-2,-2.136898041E-2,3.644350739E-2
5.360512718E0,1.342679933E-2,4.644083977E-2,-2.178192139E-3,4.839189043E-2
5.365533656E0,-9.915567935E-4,4.585462809E-2,-1.163768768E-2,4.731876875E-2
5.370554593E0,-1.054620370E-2,3.582823277E-2,-6.777763367E-3,3.795817108E-2
5.375575531E0,-2.512657642E-2,1.654326916E-2,2.777099609E-3,3.021153554E-2
5.380596468E0,-2.080315724E-2,2.596181631E-2,-1.149559021E-2,3.519852059E-2
5.385617406E0,2.948384732E-3,3.994679451E-2,-1.139545441E-2,4.164487658E-2
5.390638343E0,-2.547308058E-2,3.017616272E-2,1.243591309E-2,4.140205991E-2
5.395659281E0,-2.527503297E-2,3.478431702E-2,2.181911469E-2,4.821669594E-2
5.400680218E0,-1.558164135E-2,2.505683899E-2,2.638053894E-2,3.957986309E-2
5.405701156E0,-5.964044482E-3,1.546198130E-2,2.140140533E-2,2.706774543E-2
5.410722093E0,3.474995494E-3,5.946934223E-3,-2.530097961E-3,7.337780048E-3
5.415743031E0,8.081898093E-3,1.311480999E-3,-4.051208496E-2,4.133117573E-2
5.420763968E0,2.725275606E-2,-8.137047291E-3,-6.392383575E-2,6.996557031E-2
5.425784906E0,3.475669771E-3,6.287395954E-3,-1.591777802E-2,1.746388517E-2
5.430805843E0,3.639213741E-3,1.597642899E-3,3.197669983E-3,5.101120740E-3
5.435826781E0,-1.049081981E-2,-7.750034332E-3,1.740074158E-2,2.174640522E-2
5.440847718E0,-1.015423238E-2,6.722629070E-3,7.742881775E-3,1.443102197E-2
5.445868656E0,-1.921905018E-2,2.572000027E-2,2.666568756E-2,4.173666490E-2
5.450889593E0,-2.794492245E-2,1.606792212E-2,3.593254089E-2,4.827260410E-2
5.455910531E0,-2.204737999E-2,2.063852549E-2,1.663970947E-2,3.448065588E-2
5.460931468E0,-2.558764257E-2,1.087379456E-2,1.650810242E-2,3.233394974E-2
5.465952406E0,-1.031113416E-2,-8.254885674E-3,2.126693726E-3,1.337854444E-2
5.470973343E0,4.569685087E-3,-2.712053061E-2,-2.647399902E-3,2.762994622E-2
5.475994281E0,9.462712333E-3,-3.153163195E-2,-1.688194275E-2,3.699711785E-2
5.481015218E0,4.569426179E-3,-4.529982805E-2,-1.201343536E-2,4.708796775E-2
5.486036156E0,1.850417256E-2,-5.415314436E-2,-1.193809509E-2,5.845926411E-2
5.491057093E0,1.802560501E-2,-4.873889685E-2,2.387046814E-3,5.202019314E-2
5.496078031E0,2.229457721E-2,-3.382092714E-2,7.091522217E-3,4.112411669E-2
5.501098968E0,2.837136388E-3,-1.438212395E-2,3.075981140E-2,3.407434269E-2
5.506119906E0,-1.650489122E-2,-9.299218655E-3,3.998088837E-2,4.424204263E-2
5.511140843E0,-1.684188284E-2,-4.258871078E-3,4.912567139E-2,5.210679984E-2
5.516161781E0,-1.711450331E-2,-8.757770061E-3,4.394912720E-2,4.797010049E-2
5.521182718E0,1.759266481E-3,9.747743607E-4,1.982498169E-2,1.992674340E-2
5.526203656E0,-7.978374138E-3,1.077950001E-3,5.403518677E-3,9.696104588E-3
5.531224593E0,-1.288144477E-2,-2.725923061E-2,5.950927734E-4,3.015545404E-2
5.536245531E0,-3.596598282E-3,-2.697277069E-2,-2.315711975E-2,3.573119188E-2
5.541266468E0,-3.942765296E-3,-4.093402624E-2,-4.196262360E-2,5.875373760E-2
5.546287406E0,-4.244215786E-3,-5.483037233E-2,-5.111026764E-2,7.507757692E-2
5.551308343E0,3.136787564E-4,-4.017174244E-2,-7.442188263E-2,8.457235895E-2
5.556329281E0,-9.200189263E-3,-4.462945461E-2,-5.955219269E-2,7.498596772E-2
5.561350218E0,-2.797180414E-2,-3.970825672E-2,-4.953956604E-2,6.937821043E-2
5.566371156E0,-3.704322502E-2,-3.962802887E-2,-1.586341858E-2,5.651751269E-2
5.571392093E0,-3.178863227E-2,-2.525150776E-2,-6.216049194E-3,4.107061058E-2
5.576413031E0,-4.083319008E-2,-3.009176254E-2,3.360748291E-3,5.083461630E-2
5.581433968E0,-4.514738172E-2,-3.009182215E-2,3.355979919E-3,5.436052279E-2
5.586454906E0,-4.473373294E-2,-3.019511700E-2,1.285934448E-2,5.548166088E-2
5.591475843E0,-3.029463254E-2,-2.544540167E-2,1.752567291E-2,4.327103463E-2
5.596496781E0,-2.102952451E-2,-3.492921591E-2,2.689743042E-2,4.884427078E-2
5.601517718E0,-2.499701455E-3,-3.003674746E-2,3.618621826E-2,4.709455486E-2
5.606538656E0,1.593230478E-2,-2.528864145E-2,5.490398407E-2,6.251240828E-2
5.611559593E0,2.941050008E-2,-3.472226858E-2,9.245014191E-2,1.030419438E-1
5.616580531E0,1.386684924E-2,-4.882556200E-2,1.439304352E-1,1.526178076E-1
5.621601468E0,3.137697279E-2,-5.806267262E-2,1.237554550E-1,1.402540588E-1
5.626622406E0,4.462286085E-2,-3.424221277E-2,6.578350067E-2,8.655170597E-2
5.631643343E0,3.891452029E-2,-1.072353125E-2,4.629135132E-2,6.141842736E-2
5.636664281E0,4.286400229E-2,-6.343543530E-3,2.220821381E-2,4.869053293E-2
5.641685218E0,8.684217930E-3,-2.574247122E-2,3.631401062E-2,4.535193307E-2
5.646706156E0,-6.371881813E-3,-5.452835560E-2,2.181720734E-2,5.907565470E-2
5.651727093E0,2.858616412E-3,-5.458360910E-2,-5.903911591E-2,8.045594619E-2
5.656748031E0,-2.576895803E-2,-4.529649019E-2,-3.474044800E-2,6.263154117E-2
5.661768968E0,-4.977140948E-2,-2.795517445E-3,-1.539611816E-2,5.217325535E-2
5.666789906E0,2.715054899E-3,-1.457907557E-1,-1.006860733E-1,1.772004553E-1
5.671810843E0,4.134671390E-2,-5.014443398E-1,1.418399811E-2,5.033459669E-1
5.676831781E0,4.772829413E-1,-2.035545111E-1,-4.284763336E-2,5.206432221E-1
5.681852718E0,7.158852816E-1,-6.409686804E-2,-2.561798096E-1,7.630388192E-1
5.686873656E0,-2.814921439E-1,2.679389715E-2,-1.590929031E-1,3.244476719E-1
5.691894593E0,-1.052557468E0,-6.684899330E-3,1.651296616E-1,1.065452823E0
5.696915531E0,-1.374215484E0,1.117273569E-1,-4.040431976E-2,1.379341766E0
5.701936468E0,-1.312527776E0,2.192182541E-1,1.594390869E-1,1.340226334E0
5.706957406E0,-1.227106094E0,2.733933926E-1,8.697509766E-2,1.260197596E0
5.711978343E0,-1.279700279E0,2.555378675E-1,1.908473969E-1,1.318846138E0
5.716999281E0,-1.331665397E0,1.662908196E-1,1.799278259E-1,1.354016022E0
5.722020218E0,-1.473672032E0,6.332015991E-2,1.881189346E-1,1.486979299E0
5.727041156E0,-1.452592492E0,-2.937692404E-2,2.531242371E-2,1.453109999E0
5.732062093E0,-1.360531211E0,-3.582167625E-2,3.006649017E-2,1.361334772E0
5.737083031E0,-1.094508290E0,-1.085953116E-1,6.800937653E-2,1.101983037E0
5.742103968E0,-7.078496814E-1,-2.376559973E-1,1.157760620E-3,7.466812472E-1
5.747124906E0,3.559825569E-2,-3.943166137E-1,-3.499832153E-1,5.284326624E-1
5.752145843E0,9.209848046E-1,-5.038427114E-1,5.650796890E-1,1.192218748E0
5.757166781E0,1.143416643E0,-4.413192272E-1,-3.367414474E-1,1.271046452E0
5.762187718E0,1.003273487E0,-4.196294546E-1,-4.525775909E-1,1.177910457E0
5.767208656E0,6.444903016E-1,-3.927568197E-1,1.779546738E-1,7.754311924E-1
5.772229593E0,5.329192281E-1,-5.666580200E-1,-1.035966873E-1,7.847525017E-1
5.777250531E0,4.775376916E-1,-6.348266602E-1,-3.305244446E-1,8.604031287E-1
5.782271468E0,8.022665977E-1,-5.064314604E-1,-1.235723495E-1,9.567521327E-1
5.787292406E0,1.259022713E0,-2.564561367E-1,1.149845123E-1,1.290011387E0
5.792313343E0,1.479875088E0,3.526413441E-2,-1.803789139E-1,1.491244577E0
5.797334281E0,1.556460500E0,3.389967084E-1,2.294807434E-1,1.609394130E0
5.802355218E0,1.356824875E0,5.829874277E-1,1.658477783E-1,1.486053016E0
5.807376156E0,9.931364059E-1,6.496307850E-1,-4.449367523E-2,1.187568846E0
5.812397093E0,5.800495148E-1,5.685271621E-1,2.550067902E-1,8.512984416E-1
5.817418031E0,3.256572485E-1,3.362593651E-1,2.196092606E-1,5.170601816E-1
5.822438968E0,2.015544176E-1,1.392251253E-1,5.154514313E-2,2.503292243E-1
5.827459906E0,1.839710921E-1,-8.211135864E-3,-2.019691467E-2,1.852584704E-1
5.832480843E0,9.142379463E-2,-1.446591020E-1,-8.662033081E-2,1.918010629E-1
5.837501781E0,-9.632468224E-3,-1.562471390E-1,4.184722900E-3,1.565996960E-1
5.842522718E0,-9.600377083E-2,-1.766641140E-1,-9.576034546E-2,2.227037875E-1
5.847543656E0,-1.809799671E-1,-1.252202988E-1,-2.397251129E-2,2.213787547E-1
5.852564593E0,-3.039566576E-1,-6.837403774E-2,-5.116462708E-3,3.115940259E-1
5.857585531E0,-3.398264349E-1,-6.336319447E-2,6.573295593E-2,3.518774243E-1
5.862606468E0,-2.522422969E-1,-9.040510654E-2,4.112920761E-1,4.908772062E-1
5.867627406E0,-1.634287238E-1,-2.138406038E-2,6.209459305E-1,6.424484994E-1
5.872648343E0,1.842937768E-1,1.380479932E-1,6.673431396E-1,7.059520597E-1
5.877669281E0,3.648125231E-1,2.928919792E-1,4.520702362E-1,6.505700477E-1
5.882690218E0,5.282425880E-1,4.994379878E-1,5.946836472E-1,9.392162561E-1
5.887711156E0,4.029438496E-1,6.141228676E-1,5.746889114E-1,9.326188864E-1
5.892732093E0,1.436623037E-1,4.997453690E-1,4.409542084E-1,6.817806870E-1
5.897753031E0,-6.668561697E-2,2.766668797E-1,2.466783524E-1,3.766188303E-1
5.902773968E0,-3.323470950E-1,1.173138618E-1,-1.501474380E-1,3.830944882E-1
5.907794906E0,-6.893016696E-1,-6.495952606E-3,-5.579929352E-1,8.868681440E-1
5.912815843E0,-9.127178788E-1,-2.094797492E-1,-3.356943130E-1,9.947996600E-1
5.917836781E0,-6.734313965E-1,-3.775801659E-1,1.297760010E-2,7.721690524E-1
5.922857718E0,-3.557940125E-1,-4.072006941E-1,1.403913498E-1,5.586694154E-1
5.927878656E0,-2.066461742E-1,-3.518978357E-1,9.588050842E-2,4.191989981E-1
5.932899593E0,-3.804018199E-1,-1.549323797E-1,-2.521352768E-1,4.819562062E-1
5.937920531E0,-4.127748609E-1,3.661972284E-2,-6.590833664E-1,7.785338616E-1
5.942941468E0,-1.801697612E-1,-3.288149834E-2,-8.586378098E-1,8.779528598E-1
5.947962406E0,1.741087735E-1,-3.134689033E-1,-8.478212357E-1,9.205310782E-1
5.952983343E0,4.439058304E-1,-7.992243171E-1,-6.093187332E-1,1.098672478E0
5.958004281E0,4.239678383E-1,-1.266406059E0,-3.205900192E-1,1.373430375E0
5.963025218E0,5.027558804E-1,-1.374621153E0,-2.383890152E-1,1.482961939E0
5.968046156E0,5.598845482E-1,-1.226982117E0,-2.327413559E-1,1.368621336E0
5.973067093E0,6.040114760E-1,-1.025354981E0,8.165073395E-2,1.192832571E0
5.978088031E0,6.775034070E-1,-9.842226505E-1,6.357584000E-1,1.353474727E0
5.983108968E0,7.863006592E-1,-1.000435829E0,1.016932487E0,1.628892955E0
5.988129906E0,8.891109228E-1,-9.714951515E-1,1.225642204E0,1.799033039E0
5.993150843E0,8.522815704E-1,-8.736832142E-1,1.568203926E0,1.987201497E0
5.998171781E0,7.032462358E-1,-7.311293483E-1,1.877106667E0,2.133690425E0
6.003192718E0,4.894790351E-1,-4.719163477E-1,2.042406082E0,2.152607110E0
6.008213656E0,1.436199844E-1,-7.157629728E-2,2.145559311E0,2.151551678E0
6.013234593E0,-2.440231144E-1,4.707673788E-1,2.277460098E0,2.338374158E0
6.018255531E0,-5.876926780E-1,9.311964512E-1,2.390187263E0,2.631635360E0
6.023276468E0,-8.913347721E-1,1.200522661E0,2.450263023E0,2.870456622E0
6.028297406E0,-1.144601345E0,1.355684280E0,2.539069176E0,3.097557810E0
6.033318343E0,-1.314594984E0,1.463794231E0,2.800055504E0,3.422157850E0
6.038339281E0,-1.360110998E0,1.572544098E0,3.175603867E0,3.795689237E0
6.043360218E0,-1.249056458E0,1.700461864E0,3.507755280E0,4.093416628E0
6.048381156E0,-1.011179090E0,1.755800962E0,3.973523140E0,4.460292178E0
6.053402093E0,-7.767657638E-1,1.718625426E0,4.457966805E0,4.840506837E0
6.058423031E0,-5.790687799E-1,1.640959978E0,4.640666962E0,4.956194120E0
6.063443968E0,-3.502410054E-1,1.622749805E0,4.641617775E0,4.929564003E0
6.068464906E0,-1.814480424E-1,1.668933153E0,4.618827820E0,4.914451311E0
6.073485843E0,-2.514588833E-2,1.731953859E0,4.471847534E0,4.795593483E0
6.078506781E0,1.572907269E-1,1.802718878E0,4.176891327E0,4.552027777E0
6.083527718E0,3.716152906E-1,1.828912973E0,3.748517036E0,4.187409768E0
6.088548656E0,5.810812712E-1,1.806356430E0,3.296925545E0,3.803984364E0
6.093569593E0,6.862689853E-1,1.750129700E0,2.979972839E0,3.523372988E0
6.098590531E0,6.342753172E-1,1.684290290E0,2.792681694E0,3.322380171E0
6.103611468E0,5.352230072E-1,1.598910332E0,2.687102318E0,3.172301496E0
6.108632406E0,4.079003334E-1,1.507869244E0,2.710982323E0,3.128814071E0
6.113653343E0,2.658253610E-1,1.434387684E0,2.778097153E0,3.137826467E0
6.118674281E0,7.532536983E-2,1.421026230E0,2.759308815E0,3.104637595E0
6.123695218E0,-1.102540493E-1,1.409599781E0,2.630943298E0,2.986802661E0
6.128716156E0,-2.182856798E-1,1.428314209E0,2.493708611E0,2.882067444E0
6.133737093E0,-2.869188190E-1,1.466799736E0,2.486444473E0,2.901073938E0
6.138757978E0,-2.890865207E-1,1.538613319E0,2.589880943E0,3.026282416E0
6.143778864E0,-1.887312531E-1,1.562143326E0,2.607728958E0,3.045679165E0
6.148799749E0,-4.440462589E-2,1.513717055E0,2.434840202E0,2.867360791E0
6.153820635E0,1.626048088E-1,1.379672766E0,2.138361931E0,2.550005689E0
6.158841520E0,3.939161897E-1,1.170577407E0,1.828385353E0,2.206448375E0
6.163862406E0,5.485728979E-1,9.544336796E-1,1.562195778E0,1.911107407E0
6.168883291E0,5.398532152E-1,7.654759884E-1,1.344395638E0,1.638534288E0
6.173904176E0,3.343914449E-1,6.043887138E-1,1.021809578E0,1.233368627E0
6.178925062E0,-5.677306652E-2,5.096718073E-1,5.181360245E-1,7.290085542E-1
6.183945947E0,-5.123276114E-1,4.385024309E-1,-7.543373108E-2,6.785677646E-1
6.188966833E0,-8.965502381E-1,3.336238861E-1,-6.917085648E-1,1.180494797E0
6.193987718E0,-1.145921230E0,2.004057169E-1,-1.306729317E0,1.749525486E0
6.199008603E0,-1.240676522E0,5.815982819E-3,-1.887048721E0,2.258376615E0
6.204029489E0,-1.152374983E0,-2.207622528E-1,-2.361114025E0,2.636581786E0
6.209050374E0,-8.288761377E-1,-5.024666786E-1,-2.710123062E0,2.878241725E0
6.214071260E0,-3.475492001E-1,-8.196392059E-1,-2.943975449E0,3.075644699E0
6.219092145E0,1.037002206E-1,-1.176597118E0,-3.048687935E0,3.269500365E0
6.224113031E0,4.946584702E-1,-1.486819506E0,-3.125091076E0,3.495928128E0
6.229133916E0,8.053640127E-1,-1.683383942E0,-3.273760319E0,3.768275376E0
6.234154801E0,1.021259546E0,-1.738151073E0,-3.427608013E0,3.976510645E0
6.239175687E0,1.109675407E0,-1.666095376E0,-3.663018227E0,4.174321004E0
6.244196572E0,1.006067276E0,-1.496137261E0,-4.061052799E0,4.443281210E0
6.249217458E0,6.792759299E-1,-1.246998429E0,-4.430257320E0,4.652268350E0
6.254238343E0,2.980058193E-1,-9.707720280E-1,-4.632123947E0,4.742128010E0
6.259259228E0,4.369091988E-2,-7.340900898E-1,-4.595290184E0,4.653760741E0
6.264280114E0,-2.326154709E-2,-5.036842823E-1,-4.425331593E0,4.453964376E0
6.269301051E0,9.441643953E-3,-2.752978802E-1,-4.261068821E0,4.269963181E0
6.274321989E0,1.052595079E-1,-3.480768204E-2,-4.499314308E0,4.500679991E0
6.279342926E0,1.634335816E-1,9.886932373E-2,-4.680461884E0,4.684357920E0
6.284363864E0,1.182071269E-1,-3.259348869E-2,-4.268978596E0,4.270739223E0
6.289384801E0,-2.087205648E-2,-2.532513142E-1,-3.992397785E0,4.000476465E0
6.294405739E0,-2.245502174E-1,-4.591956139E-1,-4.189695835E0,4.220762325E0
6.299426676E0,-4.495641589E-1,-6.462557316E-1,-4.711673737E0,4.776988989E0
6.304447614E0,-6.339827776E-1,-8.100291491E-1,-5.026827335E0,5.130991565E0
6.309468551E0,-6.809430718E-1,-9.311895370E-1,-4.920234203E0,5.053662240E0
6.314489489E0,-5.964858532E-1,-1.009545922E0,-4.545560837E0,4.694369144E0
6.319510426E0,-4.975734055E-1,-9.873259068E-1,-4.085053921E0,4.232027561E0
6.324531364E0,-4.107536077E-1,-8.360480070E-1,-3.562792778E0,3.682551721E0
6.329552301E0,-3.343129754E-1,-7.617404461E-1,-2.864131451E0,2.982492689E0
6.334573239E0,-2.565737963E-1,-7.548010349E-1,-2.376766205E0,2.506904926E0
6.339594176E0,-2.102477551E-1,-7.578520775E-1,-2.258201122E0,2.391237378E0
6.344615114E0,-2.361977100E-1,-6.752099991E-1,-2.273553371E0,2.383430896E0
6.349636051E0,-3.089801967E-1,-5.500590801E-1,-2.221716404E0,2.309557865E0
6.354656989E0,-4.519864023E-1,-3.968636990E-1,-2.102728367E0,2.187066320E0
6.359677926E0,-6.229040623E-1,-2.872219086E-1,-1.978926182E0,2.094434226E0
6.364698864E0,-7.937653065E-1,-1.587808132E-1,-1.984293461E0,2.143057453E0
6.369719801E0,-9.693572521E-1,-1.130676270E-2,-2.094832897E0,2.308269090E0
6.374740739E0,-1.072687984E0,1.315748692E-1,-2.277008057E0,2.520463677E0
6.379761676E0,-1.108001947E0,2.892525196E-1,-2.372952461E0,2.634812843E0
6.384782614E0,-1.100093365E0,4.717321396E-1,-2.292095184E0,2.585814563E0
6.389803551E0,-1.112969637E0,6.650476456E-1,-2.187927723E0,2.543229739E0
6.394824489E0,-1.172917843E0,8.261795044E-1,-2.094116688E0,2.538431315E0
6.399845426E0,-1.220374584E0,9.884948730E-1,-2.034682751E0,2.570286003E0
6.404866364E0,-1.260236979E0,1.128229856E0,-2.239198685E0,2.806262746E0
6.409887301E0,-1.323626757E0,1.226796150E0,-2.678667068E0,3.229903071E0
6.414908239E0,-1.326789737E0,1.270491838E0,-2.965471745E0,3.488343903E0
6.419929176E0,-1.216746807E0,1.240241528E0,-3.042386532E0,3.503539303E0
6.424950114E0,-9.692129493E-1,1.121736050E0,-3.115272045E0,3.450012380E0
6.429971051E0,-6.652116776E-1,8.677144051E-1,-3.122083187E0,3.307996114E0
6.434991989E0,-3.144780993E-1,4.647703171E-1,-2.991414547E0,3.043594736E0
6.440012926E0,7.824411988E-2,-1.415228844E-2,-2.919827938E0,2.920910409E0
6.445033864E0,5.720939040E-1,-4.293882847E-1,-3.074817181E0,3.156923570E0
6.450054801E0,1.273044825E0,-6.354396343E-1,-3.848662853E0,4.103246570E0
6.455075739E0,1.839620471E0,-8.597235680E-1,-4.667088032E0,5.089699283E0
6.460096676E0,2.171663523E0,-1.230279088E0,-4.884395123E0,5.485164063E0
6.465117614E0,2.283576250E0,-1.609028339E0,-4.314282417E0,5.139720368E0
6.470138551E0,2.116447926E0,-1.767782211E0,-3.473474503E0,4.435023212E0
6.475159489E0,1.778827190E0,-1.746522188E0,-2.552772522E0,3.568082605E0
6.480180426E0,1.349473238E0,-1.733716607E0,-1.546648026E0,2.686814361E0
6.485201364E0,8.381474614E-1,-1.741070747E0,-3.923254013E-1,1.971734702E0
6.490222301E0,2.777350545E-1,-1.760921955E0,8.242788315E-1,1.964031182E0
6.495243239E0,-2.286541462E-1,-1.771402836E0,2.203460693E0,2.836439626E0
6.500264176E0,-5.297869444E-1,-1.702137232E0,3.390579224E0,3.830662193E0
6.505285114E0,-6.493394375E-1,-1.463141918E0,4.146091461E0,4.444378515E0
6.510306051E0,-7.714304924E-1,-1.126577139E0,4.627731323E0,4.824953705E0
6.515326989E0,-1.030662179E0,-7.886708975E-1,4.921573639E0,5.089808778E0
6.520347926E0,-1.358968496E0,-5.025827885E-1,4.898680687E0,5.108469174E0
6.525368864E0,-1.529881477E0,-2.832729816E-1,5.095234871E0,5.327494656E0
6.530389801E0,-1.712844133E0,-5.699372292E-2,5.635490417E0,5.890317101E0
6.535410739E0,-1.913390636E0,6.507122517E-2,5.481887817E0,5.806581786E0
6.540431676E0,-1.917466760E0,3.539824486E-2,5.238253593E0,5.578282219E0
6.545452614E0,-1.683156967E0,8.058428764E-3,4.919348717E0,5.199334007E0
6.550473551E0,-1.244938493E0,-5.838692188E-2,4.582827568E0,4.749272513E0
6.555494489E0,-7.205632925E-1,-3.346874714E-1,4.582572937E0,4.650935592E0
6.560515426E0,-1.159162521E-1,-7.334977388E-1,4.922633171E0,4.978330327E0
6.565536364E0,4.585898519E-1,-9.441401362E-1,5.071740150E0,5.179213589E0
6.570557301E0,9.329530597E-1,-8.866556287E-1,4.820037842E0,4.988920165E0
6.575578239E0,1.258780599E0,-7.683451772E-1,4.288140297E0,4.534647739E0
6.580599176E0,1.497172356E0,-7.386708260E-1,3.849844933E0,4.196244232E0
6.585620114E0,1.667532921E0,-7.885773778E-1,3.701144218E0,4.135334188E0
6.590641051E0,1.811015725E0,-8.938942552E-1,3.640580177E0,4.163249803E0
6.595661989E0,1.988418221E0,-1.044065475E0,3.443003654E0,4.110736419E0
6.600682926E0,2.099049807E0,-1.194443822E0,3.122686386E0,3.947641878E0
6.605703864E0,2.152673244E0,-1.238533020E0,2.713084221E0,3.678150640E0
6.610724801E0,2.058477402E0,-1.141712666E0,2.381511688E0,3.348497416E0
6.615745739E0,1.795808792E0,-1.003589988E0,2.323668480E0,3.103475034E0
6.620766676E0,1.381574154E0,-8.233458996E-1,2.261492729E0,2.775066662E0
6.625787614E0,9.338847399E-1,-5.813803673E-1,2.070421219E0,2.344522950E0
6.630808551E0,6.098910570E-1,-3.770334721E-1,1.802939415E0,1.940286544E0
6.635829489E0,4.380384386E-1,-2.952049971E-1,1.607156754E0,1.691737714E0
6.640850426E0,3.984647989E-1,-3.344508410E-1,1.630912781E0,1.711872676E0
6.645871364E0,3.990971744E-1,-4.602113962E-1,1.744487762E0,1.847785333E0
6.650892301E0,3.920228779E-1,-4.854623079E-1,1.684611320E0,1.796460657E0
6.655913239E0,3.687509894E-1,-4.244638681E-1,1.437173843E0,1.543248367E0
6.660934176E0,3.409878612E-1,-3.489074707E-1,1.074286461E0,1.179873105E0
6.665955114E0,3.305207491E-1,-3.064687252E-1,7.780179977E-1,8.991546307E-1
6.670976051E0,3.294595480E-1,-4.308885336E-1,7.253627777E-1,9.057370929E-1
6.675996989E0,2.902353406E-1,-6.315701008E-1,9.304981232E-1,1.161440529E0
6.681017926E0,1.922557354E-1,-8.136159182E-1,1.321418762E0,1.563675374E0
6.686038864E0,1.056776047E-1,-8.826287985E-1,1.706710815E0,1.924334472E0
6.691059801E0,2.522403002E-2,-9.162771702E-1,1.990905762E0,2.191781434E0
6.696080739E0,5.091494322E-2,-9.301387072E-1,2.336941719E0,2.515759715E0
6.701101676E0,1.663403511E-1,-9.063198566E-1,2.783045769E0,2.931625581E0
6.706122614E0,3.216900826E-1,-7.740001678E-1,3.109060287E0,3.220064695E0
6.711143551E0,4.398284554E-1,-5.673824549E-1,3.243430138E0,3.321928804E0
6.716164489E0,5.543645620E-1,-3.540031910E-1,3.258214951E0,3.323943891E0
6.721185426E0,6.804622412E-1,-7.644915581E-2,3.153629303E0,3.227111885E0
6.726206364E0,7.907463312E-1,2.702541351E-1,2.944254875E0,3.060547962E0
6.731227301E0,8.482256532E-1,6.142206192E-1,2.711668968E0,2.906871569E0
6.736248239E0,8.013406992E-1,9.316042662E-1,2.489474297E0,2.776241290E0
6.741269176E0,6.940356493E-1,1.136407375E0,2.287302017E0,2.646669175E0
6.746290114E0,5.506500006E-1,1.262501717E0,2.195992470E0,2.592201561E0
6.751311051E0,3.182157278E-1,1.324175596E0,2.244096756E0,2.625009049E0
6.756331989E0,4.365396500E-2,1.268442750E0,2.359689713E0,2.679363398E0
6.761352926E0,-2.067866325E-1,1.133504987E0,2.432657242E0,2.691730953E0
6.766373864E0,-4.192183018E-1,9.577540159E-1,2.367360115E0,2.587939461E0
6.771394801E0,-5.410200357E-1,7.889912128E-1,2.259654999E0,2.453823654E0
6.776415739E0,-5.769655704E-1,6.607718468E-1,2.128735542E0,2.302395212E0
6.781436676E0,-5.548602343E-1,6.307573318E-1,1.879055977E0,2.058294453E0
6.786457614E0,-4.880256653E-1,6.652622223E-1,1.577892303E0,1.780586138E0
6.791478551E0,-3.854080439E-1,7.452425957E-1,1.344952583E0,1.585188739E0
6.796499489E0,-2.376425266E-1,8.183815479E-1,1.146612167E0,1.428615340E0
6.801520426E0,-7.373750210E-2,8.802103996E-1,9.684162140E-1,1.310739307E0
6.806541364E0,7.229948044E-2,9.504048824E-1,7.958383560E-1,1.241714679E0
6.811562301E0,1.572451591E-1,9.768981934E-1,5.809154510E-1,1.147396567E0
6.816583239E0,1.715955734E-1,9.601528645E-1,2.853651047E-1,1.016253810E0
6.821604176E0,1.206161976E-1,9.007542133E-1,-9.470939636E-3,9.088432861E-1
6.826625114E0,-2.442240715E-2,8.514239788E-1,-1.697044373E-1,8.685153088E-1
6.831646051E0,-2.646075487E-1,8.308887482E-1,-1.620979309E-1,8.869436317E-1
6.836666989E0,-5.063357353E-1,7.192316055E-1,-2.536106110E-2,8.799506592E-1
6.841687926E0,-6.845006943E-1,6.025803089E-1,5.355834961E-2,9.135166807E-1
6.846708864E0,-7.569950819E-1,4.616250992E-1,-2.102184296E-2,8.868941335E-1
6.851729801E0,-7.856826782E-1,3.346385956E-1,-2.058191299E-1,8.784314286E-1
6.856750739E0,-7.412210703E-1,1.640570164E-1,-4.096918106E-1,8.626533251E-1
6.861771676E0,-6.422152519E-1,2.674388885E-2,-6.852064133E-1,9.395017265E-1
6.866792614E0,-5.549333096E-1,-8.667469025E-2,-1.032220840E0,1.175135457E0
6.871813551E0,-4.738600254E-1,-1.614372730E-1,-1.378921509E0,1.466979838E0
6.876834489E0,-4.229872227E-1,-2.207589149E-1,-1.730319023E0,1.794897382E0
6.881855426E0,-3.159953356E-1,-2.590744495E-1,-2.177484989E0,2.215493963E0
6.886876364E0,-1.231851578E-1,-2.519538403E-1,-2.648570061E0,2.663377308E0
6.891897301E0,1.805497408E-1,-1.991224289E-1,-2.980855465E0,2.992949591E0
6.896918239E0,4.616875648E-1,-1.052560806E-1,-3.160154819E0,3.195436235E0
6.901939176E0,6.249011755E-1,-4.247069359E-2,-3.220014095E0,3.280365226E0
6.906960114E0,6.940779686E-1,-6.483793259E-3,-3.193941593E0,3.268493409E0
6.911981051E0,7.071346045E-1,7.136106491E-3,-3.144185543E0,3.222730675E0
6.917001989E0,6.397831440E-1,3.148841858E-2,-3.128120899E0,3.193032156E0
6.922022926E0,5.153280497E-1,5.645823479E-2,-3.116968632E0,3.159785433E0
6.927043864E0,3.619285822E-1,1.007113457E-1,-3.144160748E0,3.166525206E0
6.932064801E0,1.888873577E-1,1.544280052E-1,-3.195283413E0,3.204584611E0
6.937085739E0,1.533663273E-2,1.602406502E-1,-3.265538216E0,3.269503344E0
6.942106676E0,-1.063048840E-1,9.436917305E-2,-3.350175858E0,3.353190204E0
6.947127614E0,-1.667013168E-1,-4.749345779E-2,-3.434987068E0,3.439357660E0
6.952148551E0,-1.706620455E-1,-2.122032642E-1,-3.587063789E0,3.597385493E0
6.957169489E0,-1.654876471E-1,-3.611061573E-1,-3.811130047E0,3.831774530E0
6.962190426E0,-1.749409437E-1,-5.030167103E-1,-3.992546558E0,4.027909900E0
6.967211364E0,-1.660572290E-1,-6.707983017E-1,-4.007333279E0,4.066480711E0
6.972232301E0,-1.831988096E-1,-8.064031601E-1,-3.918314457E0,4.004626830E0
6.977253239E0,-2.172243595E-1,-8.572311401E-1,-3.897888660E0,3.996944791E0
6.982274176E0,-2.625576258E-1,-7.852189541E-1,-3.984069347E0,4.069190814E0
6.987295114E0,-2.551776171E-1,-6.002538204E-1,-4.095047951E0,4.146665888E0
6.992316051E0,-2.029314041E-1,-3.697683811E-1,-4.106023788E0,4.127631423E0
6.997336989E0,-1.000325680E-1,-2.467653751E-1,-4.026527882E0,4.035322347E0
7.002357926E0,2.565729618E-2,-2.978091240E-1,-3.909197330E0,3.920608670E0
7.007378864E0,1.554801464E-1,-4.553718567E-1,-3.682350636E0,3.713656393E0
7.012399801E0,3.129255772E-1,-5.995647907E-1,-3.269712448E0,3.338924954E0
7.017420739E0,4.343091249E-1,-6.304099560E-1,-2.728992939E0,2.834333006E0
7.022441676E0,4.799901247E-1,-5.010299683E-1,-2.251616478E0,2.356098112E0
7.027462614E0,4.154323339E-1,-3.131077290E-1,-1.808668613E0,1.881994322E0
7.032483551E0,3.302612305E-1,-1.155905724E-1,-1.390460014E0,1.433810557E0
7.037504489E0,2.423495054E-1,4.756784439E-2,-1.054314613E0,1.082855155E0
7.042525426E0,1.991703510E-1,1.663410664E-1,-7.570180893E-1,8.002590622E-1
7.047546364E0,1.473460197E-1,2.690637112E-1,-5.368089676E-1,6.182798702E-1
7.052567301E0,4.356324673E-2,2.982027531E-1,-3.888273239E-1,4.919444341E-1
7.057588239E0,-9.775090218E-2,2.346770763E-1,-3.034172058E-1,3.958415969E-1
7.062609176E0,-2.570517063E-1,8.357715607E-2,-2.470169067E-1,3.661667283E-1
7.067630114E0,-3.999218941E-1,-1.023004055E-1,-2.959623337E-1,5.079336544E-1
7.072651051E0,-5.343569517E-1,-1.414201260E-1,-4.784488678E-1,7.310610939E-1
7.077671989E0,-6.397362947E-1,-6.292843819E-2,-6.744003296E-1,9.316857408E-1
7.082692926E0,-7.629681826E-1,1.380007267E-1,-9.219503403E-1,1.204639813E0
7.087713864E0,-8.984560966E-1,4.136219025E-1,-1.206620216E0,1.560204725E0
7.092734801E0,-9.937241077E-1,6.589608192E-1,-1.408933640E0,1.845754849E0
7.097755739E0,-9.966086149E-1,7.934458256E-1,-1.529273987E0,1.990342668E0
7.102776676E0,-9.076676369E-1,8.082437515E-1,-1.587125778E0,1.999021445E0
7.107797614E0,-7.368119955E-1,7.375833988E-1,-1.630608559E0,1.935408344E0
7.112818551E0,-4.889451265E-1,6.391892433E-1,-1.631113052E0,1.818834796E0
7.117839489E0,-1.595551968E-1,5.084211826E-1,-1.517018318E0,1.607885113E0
7.122860426E0,1.554393768E-1,4.599943161E-1,-1.331506729E0,1.417274264E0
7.127881364E0,3.882963657E-1,4.934639931E-1,-1.093842506E0,1.261258185E0
7.132902301E0,5.100902319E-1,5.699214935E-1,-8.757295609E-1,1.162714418E0
7.137923239E0,5.251252651E-1,6.508245468E-1,-6.484966278E-1,1.058242416E0
7.142944176E0,4.513558149E-1,6.884467602E-1,-3.932847977E-1,9.123343386E-1
7.147965114E0,3.024926186E-1,6.971027851E-1,-2.967481613E-1,8.157901376E-1
7.152986051E0,1.029837132E-1,7.198061943E-1,-4.255342484E-1,8.424998511E-1
7.158006989E0,-1.312904358E-1,6.706819534E-1,-6.787242889E-1,9.631812506E-1
7.163027926E0,-3.983334303E-1,4.595305920E-1,-9.842424393E-1,1.156966320E0
7.168048864E0,-6.632223129E-1,1.016433239E-1,-1.184170723E0,1.361049412E0
7.173069801E0,-8.966459036E-1,-2.588925362E-1,-1.283434868E0,1.586885088E0
7.178090739E0,-1.054823995E0,-5.212862492E-1,-1.339514732E0,1.782888872E0
7.183111676E0,-1.113352895E0,-6.427235603E-1,-1.304509163E0,1.831500041E0
7.188132614E0,-1.020291686E0,-6.904329062E-1,-1.049464226E0,1.618353448E0
7.193153551E0,-7.572078705E-1,-6.552025080E-1,-7.707357407E-1,1.263601071E0
7.198174489E0,-4.395072460E-1,-5.184996128E-1,-5.017585754E-1,8.448491793E-1
7.203195426E0,-1.249287128E-1,-2.859854698E-1,-1.658411026E-1,3.534093145E-1
7.208216364E0,1.567558050E-1,-2.083611488E-2,2.465457916E-1,2.929016105E-1
7.213237301E0,4.087642431E-1,2.284789085E-1,6.969203949E-1,8.396361444E-1
7.218258239E0,5.769964457E-1,4.329299927E-1,1.103748322E0,1.318564990E0
7.223279176E0,6.025694609E-1,5.539300442E-1,1.476452827E0,1.688147328E0
7.228300114E0,4.842607975E-1,6.006779671E-1,1.752768517E0,1.915077025E0
7.233321051E0,2.459936142E-1,5.393896103E-1,1.808539391E0,1.903225877E0
7.238341989E0,-5.663394928E-3,3.940453529E-1,1.672961235E0,1.718750450E0
7.243362926E0,-2.118825912E-1,1.885280609E-1,1.456554413E0,1.483909640E0
7.248383864E0,-2.896332741E-1,-5.771231651E-2,1.288792610E0,1.322196860E0
7.253404801E0,-2.810683250E-1,-4.397025108E-1,1.227037430E0,1.333401123E0
7.258425739E0,-2.765491009E-1,-9.183852673E-1,1.146755219E0,1.494977737E0
7.263446676E0,-2.463747263E-1,-1.387740850E0,1.000135422E0,1.728234948E0
7.268467614E0,-8.890724182E-2,-1.737177491E0,8.590412140E-1,1.940010809E0
7.273488551E0,2.251155376E-1,-1.885031462E0,8.860483170E-1,2.095018434E0
7.278509489E0,5.464794636E-1,-1.917320013E0,1.162035942E0,2.307614215E0
7.283530426E0,8.017482758E-1,-1.886827707E0,1.509478569E0,2.545868152E0
7.288551364E0,9.226346612E-1,-1.779431105E0,1.698537827E0,2.627291480E0
7.293572301E0,9.523853064E-1,-1.600118160E0,1.724663734E0,2.538086069E0
7.298593239E0,9.391142130E-1,-1.401666641E0,1.674191475E0,2.376872309E0
7.303614176E0,8.970244527E-1,-1.232303977E0,1.705098152E0,2.287047369E0
7.308635114E0,8.020532131E-1,-1.159003496E0,1.759877205E0,2.254716443E0
7.313656051E0,6.973352432E-1,-1.210419536E0,1.809828758E0,2.286235340E0
7.318676989E0,5.636678934E-1,-1.309863806E0,1.893201828E0,2.370164097E0
7.323697926E0,4.344515800E-1,-1.438003302E0,2.033813477E0,2.528438041E0
7.328718864E0,3.667440414E-1,-1.542311192E0,2.178963661E0,2.694644251E0
7.333739801E0,3.369330168E-1,-1.584521770E0,2.223484993E0,2.751021376E0
7.338760739E0,3.457365036E-1,-1.607845783E0,2.205904961E0,2.751493865E0
7.343781676E0,4.084577560E-1,-1.636137247E0,2.131217003E0,2.717695484E0
7.348802614E0,5.212137699E-1,-1.645238638E0,2.080882072E0,2.703431924E0
7.353823551E0,6.600131989E-1,-1.696948409E0,2.193459511E0,2.850704466E0
7.358844489E0,8.094804287E-1,-1.719226241E0,2.387228966E0,3.051206248E0
7.363865426E0,8.879082203E-1,-1.640674353E0,2.475588799E0,3.099795677E0
7.368886364E0,9.242162704E-1,-1.447400212E0,2.492249489E0,3.026623631E0
7.373907301E0,8.807033896E-1,-1.212048650E0,2.509303093E0,2.922550667E0
7.378928239E0,7.952892780E-1,-9.877547026E-1,2.612880707E0,2.904357068E0
7.383949176E0,6.910997629E-1,-8.084189892E-1,2.750247002E0,2.948731713E0
7.388970114E0,6.055011749E-1,-6.741749048E-1,2.839962959E0,2.981028864E0
7.393991051E0,5.712188482E-1,-5.804007053E-1,2.853333473E0,2.967266058E0
7.399011989E0,5.642144680E-1,-4.742966890E-1,2.766498566E0,2.863007096E0
7.404032926E0,5.704853535E-1,-3.222343922E-1,2.627433777E0,2.707895270E0
7.409053864E0,5.666079521E-1,-1.718940735E-1,2.479278564E0,2.549002618E0
7.414074801E0,5.195729733E-1,-1.825690269E-2,2.302936554E0,2.360890968E0
7.419095739E0,4.294879436E-1,1.197140217E-1,2.146237373E0,2.192059808E0
7.424116676E0,3.059103489E-1,2.180690765E-1,2.052209854E0,2.086312668E0
7.429137614E0,1.771883965E-1,2.720208168E-1,1.968127251E0,1.994722018E0
7.434158551E0,6.209313869E-2,2.673397064E-1,1.874783516E0,1.894766294E0
7.439179489E0,-1.576995850E-2,2.331721783E-1,1.700315475E0,1.716301451E0
7.444200426E0,-5.608320236E-2,2.419033051E-1,1.416033745E0,1.437641854E0
7.449221364E0,-5.809736252E-2,2.891552448E-1,1.122512817E0,1.160612375E0
7.454242301E0,-7.838451862E-2,3.847742081E-1,9.106779099E-1,9.917305982E-1
7.459263239E0,-1.406140327E-1,4.623188972E-1,7.803020477E-1,9.178138998E-1
7.464284176E0,-2.494888306E-1,5.553059578E-1,7.264976501E-1,9.478439845E-1
7.469305114E0,-4.049639702E-1,6.396949291E-1,6.822357178E-1,1.019142284E0
7.474326051E0,-5.109312534E-1,7.298948765E-1,6.045074463E-1,1.076673827E0
7.479346989E0,-6.051602364E-1,7.969040871E-1,5.461273193E-1,1.139969335E0
7.484367926E0,-6.827477217E-1,8.405458927E-1,5.788869858E-1,1.227913674E0
7.489388864E0,-7.393203974E-1,8.796882629E-1,6.500864029E-1,1.320249378E0
7.494409801E0,-7.895883322E-1,9.427919388E-1,7.166547775E-1,1.423341296E0
7.499430739E0,-8.244231939E-1,1.034144402E0,7.404022217E-1,1.515692481E0
7.504451676E0,-8.824380636E-1,1.120037556E0,7.357368469E-1,1.604521664E0
7.509472614E0,-9.785572290E-1,1.205171108E0,7.552318573E-1,1.726379683E0
7.514493551E0,-1.065887809E0,1.231939077E0,8.131055832E-1,1.820695307E0
7.519514489E0,-1.154991627E0,1.252718210E0,8.231458664E-1,1.892320715E0
7.524535426E0,-1.246146441E0,1.267437458E0,7.184343338E-1,1.917140202E0
7.529556364E0,-1.291330338E0,1.290289164E0,5.326738358E-1,1.901610260E0
7.534577301E0,-1.304618597E0,1.292758465E0,2.994499207E-1,1.860893438E0
7.539598239E0,-1.300040364E0,1.274978399E0,6.667995453E-2,1.822119942E0
7.544619176E0,-1.296246767E0,1.203781605E0,-1.273689270E-1,1.773575112E0
7.549640114E0,-1.283672929E0,1.103307724E0,-3.688697815E-1,1.732388247E0
7.554661051E0,-1.247803926E0,9.595861435E-1,-6.387023926E-1,1.698752764E0
7.559681989E0,-1.173838019E0,8.256783485E-1,-9.655647278E-1,1.729727052E0
7.564702926E0,-1.075858116E0,7.256660461E-1,-1.291997910E0,1.831207387E0
7.569723864E0,-9.678497314E-1,6.502881050E-1,-1.589348793E0,1.971201996E0
7.574744801E0,-8.736137152E-1,5.710332394E-1,-1.852922916E0,2.126641300E0
7.579765739E0,-7.548825741E-1,4.694709778E-1,-2.063860416E0,2.247169446E0
7.584786676E0,-6.070419550E-1,3.795816898E-1,-2.231982231E0,2.343998053E0
7.589807614E0,-4.590733051E-1,2.681190968E-1,-2.357475281E0,2.416676612E0
7.594828551E0,-3.591637611E-1,1.738038063E-1,-2.498003006E0,2.529669027E0
7.599849489E0,-3.067730665E-1,8.259797096E-2,-2.672709942E0,2.691525696E0
7.604870426E0,-2.581584454E-1,-4.961490631E-3,-2.829018116E0,2.840776989E0
7.609891364E0,-1.985887289E-1,-8.896517754E-2,-2.933386326E0,2.941446519E0
7.614912301E0,-1.803716421E-1,-1.741461754E-1,-2.957145214E0,2.967754814E0
7.619933239E0,-1.554162502E-1,-2.182476521E-1,-2.900093555E0,2.912443798E0
7.624954176E0,-9.924602509E-2,-2.359476089E-1,-2.766907215E0,2.778722114E0
7.629975114E0,-2.760171890E-3,-2.281401157E-1,-2.514421463E0,2.524751636E0
7.634996051E0,1.384278536E-1,-2.195291519E-1,-2.228673935E0,2.243734126E0
7.640016989E0,3.188070059E-1,-1.676044464E-1,-1.952688694E0,1.985628941E0
7.645037926E0,4.946955442E-1,-1.205601692E-1,-1.662549496E0,1.738772343E0
7.650058864E0,6.841151714E-1,-6.452155113E-2,-1.401372910E0,1.560776291E0
7.655079801E0,8.668211699E-1,-9.259939194E-3,-1.174063683E0,1.459414341E0
7.660100739E0,1.013554811E0,6.783962250E-3,-1.018905640E0,1.437187559E0
7.665121676E0,1.071164966E0,1.248311996E-2,-9.551076889E-1,1.435193684E0
7.670142614E0,1.034820199E0,1.737952232E-2,-9.634571075E-1,1.414003002E0
7.675163551E0,9.191358089E-1,5.015993118E-2,-1.048623085E0,1.395326854E0
7.680184489E0,7.870732546E-1,1.061940193E-1,-1.196086884E0,1.435752524E0
7.685205426E0,6.726380587E-1,1.281902790E-1,-1.348324776E0,1.512234904E0
7.690226364E0,5.906441212E-1,1.498451233E-1,-1.447899818E0,1.570900354E0
7.695247301E0,4.792385101E-1,1.091935635E-1,-1.576173782E0,1.651035001E0
7.700268239E0,3.438086510E-1,-7.740259171E-3,-1.699614048E0,1.734056577E0
7.705289176E0,1.993042231E-1,-1.478233337E-1,-1.866074085E0,1.882500041E0
7.710310114E0,5.628275871E-2,-2.773826122E-1,-2.017967701E0,2.037719928E0
7.715331051E0,-8.967387676E-2,-3.724310398E-1,-2.083529949E0,2.118453052E0
7.720351989E0,-1.907200813E-1,-4.328851700E-1,-2.043772221E0,2.097800898E0
7.725372926E0,-2.233407497E-1,-4.826314449E-1,-1.932388783E0,2.004230678E0
7.730393864E0,-2.167278528E-1,-4.978213310E-1,-1.821268559E0,1.900477888E0
7.735414801E0,-1.569434404E-1,-4.641792774E-1,-1.700905323E0,1.770076994E0
7.740435739E0,-8.272266388E-2,-4.010727406E-1,-1.537857056E0,1.591447990E0
7.745456676E0,-2.329456806E-2,-3.184950352E-1,-1.384763718E0,1.421109524E0
7.750477614E0,1.130235195E-2,-2.263491154E-1,-1.203357697E0,1.224512724E0
7.755498551E0,4.891645908E-2,-1.870431900E-1,-1.012915611E0,1.031201246E0
7.760519489E0,7.932114601E-2,-1.622991562E-1,-8.709592819E-1,8.894958859E-1
7.765540426E0,1.020351648E-1,-1.473650932E-1,-8.157768250E-1,8.352361784E-1
7.770561364E0,1.217701435E-1,-1.136510372E-1,-8.281097412E-1,8.446953709E-1
7.775582301E0,1.051644087E-1,-4.184484482E-2,-9.318227768E-1,9.386715247E-1
7.780603239E0,4.312705994E-2,2.965927124E-2,-1.069291115E0,1.070571391E0
7.785624176E0,-4.000115395E-2,7.726430893E-2,-1.197445869E0,1.200602547E0
7.790645114E0,-1.051896811E-1,1.109001637E-1,-1.392759323E0,1.401121782E0
7.795666051E0,-1.607742310E-1,1.403951645E-1,-1.568882942E0,1.583335985E0
7.800686989E0,-2.059814930E-1,1.798558235E-1,-1.682569027E0,1.704645131E0
7.805707926E0,-2.117217779E-1,2.435772419E-1,-1.700327396E0,1.730684616E0
7.810728864E0,-1.922397614E-1,2.881605625E-1,-1.598240852E0,1.635349032E0
7.815749801E0,-1.914302111E-1,3.038768768E-1,-1.438740730E0,1.482889602E0
7.820770739E0,-2.433530092E-1,3.047537804E-1,-1.327124596E0,1.383240849E0
7.825791676E0,-3.485945463E-1,2.906553745E-1,-1.272979736E0,1.351471832E0
7.830812614E0,-4.213402271E-1,2.425932884E-1,-1.290681839E0,1.379216698E0
7.835833551E0,-4.668232203E-1,1.462876797E-1,-1.351527214E0,1.437341231E0
7.840854489E0,-4.615517855E-1,5.487179756E-2,-1.431756020E0,1.505312680E0
7.845875426E0,-4.349387884E-1,-6.938171387E-2,-1.474220276E0,1.538606835E0
7.850896364E0,-3.874330521E-1,-1.925091743E-1,-1.536546707E0,1.596289427E0
7.855917301E0,-3.380084038E-1,-2.997081280E-1,-1.666607857E0,1.726747344E0
7.860938239E0,-3.092275858E-1,-4.433569908E-1,-1.806731701E0,1.885859634E0
7.865959176E0,-2.949075699E-1,-6.136157513E-1,-1.937576771E0,2.053703608E0
7.870980114E0,-2.790855169E-1,-8.100429773E-1,-2.020721912E0,2.194852022E0
7.876001051E0,-2.366108894E-1,-1.032355905E0,-1.946084499E0,2.215623683E0
7.881021989E0,-1.914035082E-1,-1.203858495E0,-1.704330444E0,2.095388470E0
7.886042926E0,-1.528156996E-1,-1.353643894E0,-1.439008713E0,1.981527316E0
7.891063864E0,-8.173131943E-2,-1.491252661E0,-1.173922539E0,1.899633816E0
7.896084801E0,7.499456406E-2,-1.626543880E0,-7.845497131E-1,1.807425636E0
7.901105739E0,3.262851238E-1,-1.716758490E0,-2.088775635E-1,1.759929411E0
7.906126676E0,5.654733181E-1,-1.709974289E0,4.858675003E-1,1.865432757E0
7.911147614E0,7.531189919E-1,-1.626400471E0,1.103515625E0,2.104783467E0
7.916168551E0,8.642466068E-1,-1.486106992E0,1.625058174E0,2.365639503E0
7.921189489E0,9.172536135E-1,-1.356816292E0,2.074557304E0,2.643121762E0
7.926210426E0,9.686383009E-1,-1.224742293E0,2.533366203E0,2.975936519E0
7.931231364E0,9.836977720E-1,-1.137882352E0,2.977383614E0,3.335753399E0
7.936252301E0,9.520700574E-1,-1.120319009E0,3.253490448E0,3.570259398E0
7.941273239E0,8.305015564E-1,-1.167145491E0,3.357049942E0,3.649896676E0
7.946294176E0,6.293164492E-1,-1.258987427E0,3.360077858E0,3.642967437E0
7.951315114E0,4.117383957E-1,-1.319355607E0,3.277216911E0,3.556737045E0
7.956336051E0,1.986125708E-1,-1.333953619E0,3.123186111E0,3.401936316E0
7.961356989E0,8.249020576E-2,-1.331854582E0,3.003605843E0,3.286683635E0
7.966377926E0,1.979470253E-3,-1.322807550E0,3.047712326E0,3.322404875E0
7.971398864E0,-4.201710224E-2,-1.259180903E0,3.073730469E0,3.321915258E0
7.976419801E0,-1.552975178E-2,-1.156066418E0,3.105800629E0,3.314019958E0
7.981440739E0,1.051957607E-1,-1.004053473E0,3.129564285E0,3.288367702E0
7.986461676E0,2.861385345E-1,-8.315474987E-1,3.106622696E0,3.228691852E0
7.991482614E0,4.834835529E-1,-6.956387758E-1,3.075117111E0,3.189673165E0
7.996503551E0,6.868808270E-1,-5.622208118E-1,3.053949356E0,3.180330829E0
8.001524489E0,8.904160261E-1,-5.022596121E-1,3.061906815E0,3.228061145E0
8.006545426E0,1.045119166E0,-4.529913664E-1,3.074760437E0,3.278967367E0
8.011566364E0,1.121431708E0,-3.803968430E-1,3.039644241E0,3.262169209E0
8.016587301E0,1.133677602E0,-2.795866728E-1,2.932658195E0,3.156561057E0
8.021608239E0,1.024690747E0,-1.842513084E-1,2.811347008E0,2.997934567E0
8.026629124E0,8.473037481E-1,-1.233346462E-1,2.737969398E0,2.868729946E0
8.031650010E0,6.397606134E-1,-8.302140236E-2,2.736498833E0,2.811514193E0
8.036670895E0,4.499453306E-1,-1.019520760E-1,2.696953773E0,2.736129508E0
8.041691781E0,2.494214773E-1,-1.660242081E-1,2.605159760E0,2.622333404E0
8.046712666E0,5.772519112E-2,-1.842715740E-1,2.394289970E0,2.402064252E0
8.051733551E0,-1.243451834E-1,-1.854441166E-1,2.078972816E0,2.090927836E0
8.056754437E0,-1.903508902E-1,-1.832854748E-1,1.683293343E0,1.703908303E0
8.061775322E0,-1.729050875E-1,-1.915073395E-1,1.274309158E0,1.300167321E0
8.066796208E0,-1.194701195E-1,-2.141103745E-1,9.284391403E-1,9.602685037E-1
8.071817093E0,-6.820571423E-2,-2.168028355E-1,6.884698868E-1,7.250146715E-1
8.076837978E0,-2.399349213E-2,-2.135231495E-1,5.158872604E-1,5.588447803E-1
8.081858864E0,3.622531891E-3,-2.035856247E-1,3.721714020E-1,4.242308119E-1
8.086879749E0,1.446211338E-2,-2.106075287E-1,3.384733200E-1,3.989096041E-1
8.091900635E0,4.188525677E-2,-2.394220829E-1,3.811702728E-1,4.520708854E-1
8.096921520E0,1.384472847E-2,-1.992285252E-1,4.905796051E-1,5.296716253E-1
8.101942406E0,-7.480120659E-2,-1.193256378E-1,6.523351669E-1,6.673642172E-1
8.106963291E0,-2.435599566E-1,-1.469230652E-2,8.234109879E-1,8.588032203E-1
8.111984176E0,-4.497834444E-1,7.073211670E-2,9.895954132E-1,1.089315042E0
