"Time (s)","Acceleration x (m/s^2)","Acceleration y (m/s^2)","Acceleration z (m/s^2)","Absolute acceleration (m/s^2)"
2.007673200E-2,3.531447425E-2,3.010708690E-1,9.780912399E0,9.785608726E0
2.258043000E-2,4.010287672E-2,2.819172442E-1,9.795277596E0,9.799415735E0
2.508683700E-2,4.010287672E-2,2.819172442E-1,9.800065994E0,9.804202113E0
2.759636800E-2,4.489128292E-2,3.106476665E-1,9.800065994E0,9.805091060E0
3.010933700E-2,4.489128292E-2,3.106476665E-1,9.776124001E0,9.781161366E0
3.262584700E-2,5.925649032E-2,2.914940715E-1,9.795277596E0,9.799793023E0
3.514589900E-2,4.489128292E-2,2.914940715E-1,9.800065994E0,9.804502920E0
3.766933700E-2,4.489128292E-2,2.675520480E-1,9.804854393E0,9.808606883E0
4.019584700E-2,1.616086066E-2,2.531868219E-1,9.814431190E0,9.817709730E0
4.272506600E-2,3.052607179E-2,2.627636492E-1,9.819219589E0,9.822782188E0
4.525647200E-2,3.052607179E-2,2.388216257E-1,9.804854393E0,9.807810014E0
4.778949300E-2,2.573766746E-2,2.388216257E-1,9.804854393E0,9.807796280E0
5.032350300E-2,2.573766746E-2,2.483984232E-1,9.814431190E0,9.817607845E0
5.285787800E-2,1.137245819E-2,2.483984232E-1,9.795277596E0,9.798433257E0
5.538652400E-2,3.531447425E-2,2.579752207E-1,9.771335602E0,9.774804232E0
5.790642000E-2,4.489128292E-2,2.483984232E-1,9.776124001E0,9.779382265E0
6.042631600E-2,3.052607179E-2,2.436100245E-1,9.785700798E0,9.788780199E0
6.294610700E-2,2.094926499E-2,2.340332121E-1,9.795277596E0,9.798095406E0
6.546589900E-2,3.052607179E-2,2.340332121E-1,9.795277596E0,9.798120563E0
6.798569100E-2,2.573766746E-2,2.244564146E-1,9.790489197E0,9.793095620E0
7.050491000E-2,3.052607179E-2,2.196680009E-1,9.780912399E0,9.783426457E0
7.302412800E-2,2.094926499E-2,2.244564146E-1,9.771335602E0,9.773935696E0
7.554334700E-2,6.584054790E-3,2.436100245E-1,9.766547203E0,9.769587170E0
7.806256600E-2,2.094926499E-2,2.196680009E-1,9.780912399E0,9.783401263E0
8.058178500E-2,3.531447425E-2,2.148796022E-1,9.785700798E0,9.788123439E0
8.310100300E-2,4.010287672E-2,2.292448133E-1,9.795277596E0,9.798041876E0
8.562022200E-2,2.573766746E-2,2.292448133E-1,9.785700798E0,9.788419470E0
8.813944100E-2,1.616086066E-2,2.148796022E-1,9.785700798E0,9.788073075E0
9.065866000E-2,1.616086066E-2,2.196680009E-1,9.790489197E0,9.792966553E0
9.317787800E-2,3.052607179E-2,2.244564146E-1,9.790489197E0,9.793109375E0
9.569714900E-2,1.616086066E-2,2.436100245E-1,9.800065994E0,9.803106676E0
9.821647200E-2,2.573766746E-2,2.340332121E-1,9.785700798E0,9.788532785E0
1.007358470E-1,1.616086066E-2,2.340332121E-1,9.795277596E0,9.798086338E0
1.032552740E-1,3.052607179E-2,2.388216257E-1,9.790489197E0,9.793449153E0
1.057747530E-1,3.052607179E-2,2.579752207E-1,9.780912399E0,9.784361523E0
1.082942320E-1,1.616086066E-2,2.723404467E-1,9.790489197E0,9.794289622E0
1.108137120E-1,3.052607179E-2,2.819172442E-1,9.790489197E0,9.794594830E0
1.133331910E-1,4.010287672E-2,2.771288455E-1,9.790489197E0,9.794492705E0
1.158526700E-1,3.531447425E-2,2.675520480E-1,9.776124001E0,9.779848244E0
1.183721490E-1,3.531447425E-2,2.819172442E-1,9.761758804E0,9.765892658E0
1.208916280E-1,3.052607179E-2,2.627636492E-1,9.785700798E0,9.789275596E0
1.234109510E-1,4.010287672E-2,2.531868219E-1,9.776124001E0,9.779484254E0
1.259302740E-1,3.052607179E-2,2.723404467E-1,9.776124001E0,9.779964296E0
1.284495970E-1,3.531447425E-2,2.723404467E-1,9.776124001E0,9.779980414E0
1.309689200E-1,3.531447425E-2,2.771288455E-1,9.780912399E0,9.784901373E0
1.334882430E-1,4.010287672E-2,2.819172442E-1,9.776124001E0,9.780270244E0
1.360075660E-1,4.010287672E-2,2.819172442E-1,9.790489197E0,9.794629359E0
1.385268890E-1,3.052607179E-2,2.723404467E-1,9.795277596E0,9.799110385E0
1.410462120E-1,1.616086066E-2,2.771288455E-1,9.804854393E0,9.808783372E0
1.435655350E-1,2.094926499E-2,2.914940715E-1,9.790489197E0,9.794849993E0
1.460848570E-1,2.573766746E-2,2.867056429E-1,9.795277596E0,9.799506402E0
1.486041800E-1,3.052607179E-2,3.010708690E-1,9.771335602E0,9.776020405E0
1.511235030E-1,3.052607179E-2,3.010708690E-1,9.785700798E0,9.790378727E0
1.536428780E-1,3.052607179E-2,3.010708690E-1,9.790489197E0,9.795164839E0
1.561623050E-1,3.052607179E-2,2.914940715E-1,9.804854393E0,9.809233930E0
1.586817850E-1,1.616086066E-2,3.010708690E-1,9.795277596E0,9.799916735E0
1.612013680E-1,1.616086066E-2,2.867056429E-1,9.790489197E0,9.794699588E0
1.637210550E-1,3.052607179E-2,2.867056429E-1,9.800065994E0,9.804306475E0
1.662408470E-1,4.967968538E-2,2.819172442E-1,9.800065994E0,9.804245963E0
1.687607430E-1,2.094926499E-2,2.914940715E-1,9.785700798E0,9.790063727E0
1.712807430E-1,2.573766746E-2,2.675520480E-1,9.809642792E0,9.813324525E0
1.738007950E-1,3.531447425E-2,2.723404467E-1,9.800065994E0,9.803912990E0
1.763208990E-1,3.052607179E-2,2.771288455E-1,9.795277596E0,9.799244635E0
1.788410550E-1,3.052607179E-2,2.723404467E-1,9.804854393E0,9.808683440E0
1.813612640E-1,3.531447425E-2,2.675520480E-1,9.814431190E0,9.818140904E0
1.838814720E-1,4.010287672E-2,2.675520480E-1,9.819219589E0,9.822945876E0
1.864016800E-1,3.052607179E-2,2.531868219E-1,9.785700798E0,9.789023216E0
1.889218370E-1,4.010287672E-2,2.627636492E-1,9.790489197E0,9.794096778E0
1.914413680E-1,2.573766746E-2,2.819172442E-1,9.780912399E0,9.785008284E0
1.939608990E-1,2.094926499E-2,2.675520480E-1,9.814431190E0,9.818099743E0
1.964804300E-1,2.094926499E-2,2.340332121E-1,9.824007988E0,9.826817560E0
1.989999620E-1,1.616086066E-2,2.292448133E-1,9.804854393E0,9.807547299E0
2.015194930E-1,1.137245819E-2,2.388216257E-1,9.809642792E0,9.812556079E0
2.040390240E-1,2.573766746E-2,2.388216257E-1,9.795277596E0,9.798222358E0
2.065585550E-1,3.052607179E-2,2.196680009E-1,9.804854393E0,9.807362313E0
2.090780870E-1,2.573766746E-2,2.196680009E-1,9.819219589E0,9.821710126E0
2.115976180E-1,2.573766746E-2,2.148796022E-1,9.809642792E0,9.812029727E0
2.141171490E-1,2.094926499E-2,2.244564146E-1,9.795277596E0,9.797871337E0
2.166366800E-1,2.094926499E-2,2.196680009E-1,9.800065994E0,9.802549994E0
2.191560550E-1,3.052607179E-2,2.100912035E-1,9.776124001E0,9.778428843E0
2.216754300E-1,3.052607179E-2,2.053027898E-1,9.790489197E0,9.792689099E0
2.241948050E-1,1.616086066E-2,1.957259923E-1,9.790489197E0,9.792458759E0
2.267141800E-1,2.094926499E-2,2.005143911E-1,9.800065994E0,9.802139480E0
2.292335550E-1,3.052607179E-2,2.053027898E-1,9.790489197E0,9.792689099E0
2.317528780E-1,1.616086066E-2,1.957259923E-1,9.780912399E0,9.782883890E0
2.342722010E-1,2.573766746E-2,1.909375787E-1,9.790489197E0,9.792384709E0
2.367915240E-1,4.010287672E-2,2.005143911E-1,9.795277596E0,9.797411772E0
2.393108470E-1,3.052607179E-2,2.005143911E-1,9.795277596E0,9.797377253E0
2.418301700E-1,2.573766746E-2,2.053027898E-1,9.785700798E0,9.787888014E0
2.443494930E-1,2.573766746E-2,2.148796022E-1,9.771335602E0,9.773731893E0
2.468688160E-1,1.137245819E-2,2.148796022E-1,9.771335602E0,9.773704621E0
2.493881390E-1,3.052607179E-2,2.005143911E-1,9.771335602E0,9.773440403E0
2.519074620E-1,3.531447425E-2,2.100912035E-1,9.776124001E0,9.778444963E0
2.544267850E-1,3.531447425E-2,2.053027898E-1,9.776124001E0,9.778343255E0
2.569461070E-1,1.137245819E-2,2.053027898E-1,9.780912399E0,9.783073440E0
2.594654300E-1,3.052607179E-2,2.196680009E-1,9.776124001E0,9.778639289E0
2.619847530E-1,2.573766746E-2,2.244564146E-1,9.785700798E0,9.788308496E0
2.645040760E-1,2.573766746E-2,2.005143911E-1,9.780912399E0,9.783001370E0
2.670234510E-1,1.616086066E-2,2.100912035E-1,9.780912399E0,9.783181837E0
2.695428780E-1,2.094926499E-2,2.100912035E-1,9.771335602E0,9.773616354E0
2.720623570E-1,3.052607179E-2,2.148796022E-1,9.780912399E0,9.783320114E0
2.745818890E-1,3.052607179E-2,2.244564146E-1,9.780912399E0,9.783535143E0
2.771014720E-1,1.616086066E-2,2.627636492E-1,9.790489197E0,9.794028008E0
2.796211070E-1,2.573766746E-2,2.483984232E-1,9.790489197E0,9.793673617E0
2.821407950E-1,1.616086066E-2,2.579752207E-1,9.776124001E0,9.779540524E0
2.846605350E-1,1.616086066E-2,2.483984232E-1,9.780912399E0,9.784079431E0
2.871803260E-1,2.573766746E-2,2.436100245E-1,9.795277596E0,9.798340239E0
2.897001180E-1,3.052607179E-2,2.723404467E-1,9.795277596E0,9.799110385E0
2.922199100E-1,4.489128292E-2,2.771288455E-1,9.814431190E0,9.818445662E0
2.947394930E-1,4.010287672E-2,2.819172442E-1,9.809642792E0,9.813774874E0
2.972588680E-1,1.616086066E-2,2.819172442E-1,9.795277596E0,9.799347003E0
2.997781390E-1,1.137245819E-2,2.675520480E-1,9.795277596E0,9.798937524E0
3.022974100E-1,2.573766746E-2,2.675520480E-1,9.804854393E0,9.808537923E0
3.048166800E-1,3.531447425E-2,2.723404467E-1,9.814431190E0,9.818272558E0
3.073359510E-1,2.573766746E-2,2.771288455E-1,9.809642792E0,9.813590297E0
3.098552220E-1,3.052607179E-2,2.723404467E-1,9.819219589E0,9.823043037E0
3.123744930E-1,3.531447425E-2,2.819172442E-1,9.785700798E0,9.789824541E0
3.148937640E-1,4.489128292E-2,2.819172442E-1,9.776124001E0,9.780291051E0
3.174130350E-1,3.531447425E-2,2.675520480E-1,9.800065994E0,9.803781143E0
3.199323570E-1,3.531447425E-2,2.675520480E-1,9.780912399E0,9.784634821E0
3.224516800E-1,3.052607179E-2,2.771288455E-1,9.780912399E0,9.784885263E0
3.249711070E-1,2.573766746E-2,2.675520480E-1,9.795277596E0,9.798964726E0
3.274905350E-1,3.052607179E-2,2.771288455E-1,9.804854393E0,9.808817559E0
3.300099620E-1,2.094926499E-2,2.819172442E-1,9.795277596E0,9.799356070E0
3.325294410E-1,2.094926499E-2,2.723404467E-1,9.790489197E0,9.794298694E0
3.350489720E-1,2.573766746E-2,2.579752207E-1,9.800065994E0,9.803494639E0
3.375685550E-1,2.573766746E-2,2.675520480E-1,9.795277596E0,9.798964726E0
3.400881910E-1,3.531447425E-2,2.723404467E-1,9.804854393E0,9.808699511E0
3.426078780E-1,3.531447425E-2,2.579752207E-1,9.795277596E0,9.798737750E0
3.451275660E-1,4.010287672E-2,2.531868219E-1,9.790489197E0,9.793844522E0
3.476472530E-1,4.010287672E-2,2.531868219E-1,9.776124001E0,9.779484254E0
3.501669410E-1,3.531447425E-2,2.436100245E-1,9.785700798E0,9.788796303E0
3.526865760E-1,3.052607179E-2,2.483984232E-1,9.780912399E0,9.784113704E0
3.552060550E-1,4.010287672E-2,2.436100245E-1,9.780912399E0,9.784027874E0
3.577254300E-1,2.573766746E-2,2.388216257E-1,9.790489197E0,9.793435399E0
3.602446490E-1,3.052607179E-2,2.292448133E-1,9.785700798E0,9.788433232E0
3.627638680E-1,3.052607179E-2,2.244564146E-1,9.795277596E0,9.797896493E0
3.652830870E-1,3.052607179E-2,2.292448133E-1,9.795277596E0,9.798007359E0
3.678023050E-1,3.052607179E-2,2.148796022E-1,9.795277596E0,9.797681780E0
3.703215240E-1,2.094926499E-2,2.148796022E-1,9.800065994E0,9.802443859E0
3.728407430E-1,2.573766746E-2,2.053027898E-1,9.790489197E0,9.792675343E0
3.753599620E-1,4.010287672E-2,2.100912035E-1,9.795277596E0,9.797612450E0
3.778791800E-1,2.094926499E-2,2.100912035E-1,9.790489197E0,9.792765488E0
3.803983990E-1,1.616086066E-2,2.100912035E-1,9.800065994E0,9.802330997E0
3.829176180E-1,3.531447425E-2,2.244564146E-1,9.795277596E0,9.797912582E0
3.854368890E-1,2.573766746E-2,2.148796022E-1,9.795277596E0,9.797668031E0
3.879562120E-1,3.531447425E-2,2.148796022E-1,9.795277596E0,9.797697869E0
3.904755870E-1,2.094926499E-2,2.244564146E-1,9.790489197E0,9.793084206E0
3.929950140E-1,2.573766746E-2,2.100912035E-1,9.795277596E0,9.797564183E0
3.955144930E-1,2.573766746E-2,2.244564146E-1,9.790489197E0,9.793095620E0
3.980340760E-1,2.094926499E-2,2.292448133E-1,9.795277596E0,9.797982202E0
4.005537120E-1,2.573766746E-2,2.196680009E-1,9.771335602E0,9.773838340E0
4.030733990E-1,3.052607179E-2,2.292448133E-1,9.771335602E0,9.774072052E0
4.055931390E-1,4.010287672E-2,2.100912035E-1,9.771335602E0,9.773676176E0
4.081129300E-1,4.489128292E-2,2.053027898E-1,9.785700798E0,9.787957119E0
4.106327740E-1,2.573766746E-2,2.100912035E-1,9.785700798E0,9.787989622E0
4.131526700E-1,1.616086066E-2,2.100912035E-1,9.800065994E0,9.802330997E0
4.156725660E-1,2.094926499E-2,2.100912035E-1,9.795277596E0,9.797552774E0
4.181924620E-1,4.010287672E-2,2.148796022E-1,9.785700798E0,9.788141887E0
4.207123570E-1,2.094926499E-2,2.100912035E-1,9.809642792E0,9.811914639E0
4.232322530E-1,2.573766746E-2,2.100912035E-1,9.795277596E0,9.797564183E0
4.257521490E-1,4.010287672E-2,2.196680009E-1,9.800065994E0,9.802609640E0
4.282714200E-1,1.616086066E-2,2.244564146E-1,9.795277596E0,9.797862268E0
4.307906910E-1,2.573766746E-2,2.292448133E-1,9.785700798E0,9.788419470E0
4.333099620E-1,1.616086066E-2,2.483984232E-1,9.790489197E0,9.793653132E0
4.358292320E-1,4.489128292E-2,2.483984232E-1,9.785700798E0,9.788955874E0
4.383485030E-1,3.531447425E-2,2.579752207E-1,9.785700798E0,9.789164338E0
4.408677740E-1,2.573766746E-2,2.627636492E-1,9.776124001E0,9.779688525E0
4.433870450E-1,3.052607179E-2,2.579752207E-1,9.800065994E0,9.803508380E0
4.459063160E-1,2.573766746E-2,2.483984232E-1,9.800065994E0,9.803247304E0
4.484254820E-1,2.094926499E-2,2.531868219E-1,9.804854393E0,9.808145192E0
4.509446490E-1,3.052607179E-2,2.579752207E-1,9.800065994E0,9.803508380E0
4.534638160E-1,4.489128292E-2,2.531868219E-1,9.800065994E0,9.803438799E0
4.559829820E-1,4.010287672E-2,2.483984232E-1,9.790489197E0,9.793721904E0
4.585021490E-1,4.010287672E-2,2.483984232E-1,9.785700798E0,9.788935086E0
4.610213160E-1,4.010287672E-2,2.531868219E-1,9.776124001E0,9.779484254E0
4.635404820E-1,4.489128292E-2,2.436100245E-1,9.785700798E0,9.788835537E0
4.660596490E-1,4.010287672E-2,2.531868219E-1,9.809642792E0,9.812991568E0
4.685788160E-1,3.052607179E-2,2.483984232E-1,9.809642792E0,9.812834724E0
4.710979820E-1,3.052607179E-2,2.579752207E-1,9.804854393E0,9.808295098E0
4.736172010E-1,3.052607179E-2,2.531868219E-1,9.804854393E0,9.808170323E0
4.761364720E-1,3.531447425E-2,2.675520480E-1,9.785700798E0,9.789421399E0
4.786557950E-1,3.052607179E-2,2.531868219E-1,9.795277596E0,9.798596766E0
4.811751700E-1,3.531447425E-2,2.675520480E-1,9.785700798E0,9.789421399E0
4.836946490E-1,2.573766746E-2,2.819172442E-1,9.800065994E0,9.804153877E0
4.862142320E-1,3.052607179E-2,2.819172442E-1,9.800065994E0,9.804167617E0
4.887339200E-1,2.094926499E-2,2.819172442E-1,9.776124001E0,9.780210462E0
4.912537120E-1,2.573766746E-2,2.627636492E-1,9.800065994E0,9.803621813E0
4.937735550E-1,4.489128292E-2,2.675520480E-1,9.790489197E0,9.794247191E0
4.962934510E-1,2.573766746E-2,2.579752207E-1,9.790489197E0,9.793921194E0
4.988133470E-1,2.094926499E-2,2.531868219E-1,9.780912399E0,9.784211251E0
5.013332430E-1,2.573766746E-2,2.436100245E-1,9.780912399E0,9.783979540E0
5.038531390E-1,3.052607179E-2,2.436100245E-1,9.776124001E0,9.779206418E0
5.063727220E-1,2.094926499E-2,2.627636492E-1,9.776124001E0,9.779677095E0
5.088920970E-1,2.094926499E-2,2.388216257E-1,9.776124001E0,9.779063100E0
5.114114720E-1,2.573766746E-2,2.196680009E-1,9.790489197E0,9.792987040E0
5.139308470E-1,2.094926499E-2,2.436100245E-1,9.795277596E0,9.798328831E0
5.164502220E-1,2.094926499E-2,2.483984232E-1,9.790489197E0,9.793662204E0
5.189696490E-1,2.094926499E-2,2.483984232E-1,9.790489197E0,9.793662204E0
5.214891280E-1,2.094926499E-2,2.340332121E-1,9.790489197E0,9.793308385E0
5.240086600E-1,1.616086066E-2,2.292448133E-1,9.804854393E0,9.807547299E0
5.265282950E-1,2.094926499E-2,2.388216257E-1,9.819219589E0,9.822145793E0
5.290480350E-1,2.573766746E-2,2.292448133E-1,9.804854393E0,9.807567756E0
5.315678780E-1,1.616086066E-2,2.340332121E-1,9.804854393E0,9.807660393E0
5.340878260E-1,2.573766746E-2,2.244564146E-1,9.824007988E0,9.826605521E0
5.366078780E-1,6.584054790E-3,2.196680009E-1,9.795277596E0,9.797742625E0
5.391280350E-1,2.094926499E-2,2.244564146E-1,9.800065994E0,9.802658468E0
5.416482430E-1,1.616086066E-2,2.053027898E-1,9.814431190E0,9.816591567E0
5.441684510E-1,2.094926499E-2,2.005143911E-1,9.804854393E0,9.806926866E0
5.466886600E-1,1.137245819E-2,2.100912035E-1,9.809642792E0,9.811898866E0
5.492080870E-1,1.795651275E-3,2.100912035E-1,9.800065994E0,9.802317840E0
5.517275140E-1,6.584054790E-3,2.053027898E-1,9.790489197E0,9.792643734E0
5.542468890E-1,1.137245819E-2,2.196680009E-1,9.790489197E0,9.792959822E0
5.567661070E-1,2.573766746E-2,2.148796022E-1,9.785700798E0,9.788093572E0
5.592853260E-1,1.137245819E-2,2.005143911E-1,9.795277596E0,9.797336298E0
5.618045450E-1,2.573766746E-2,1.957259923E-1,9.790489197E0,9.792479247E0
5.643237640E-1,1.137245819E-2,2.053027898E-1,9.795277596E0,9.797435468E0
5.668429820E-1,1.137245819E-2,1.957259923E-1,9.790489197E0,9.792452027E0
5.693622010E-1,1.616086066E-2,2.053027898E-1,9.790489197E0,9.792654856E0
5.718814200E-1,6.584054790E-3,2.100912035E-1,9.780912399E0,9.783170704E0
5.744006390E-1,2.573766746E-2,2.196680009E-1,9.766547203E0,9.769051168E0
5.769198570E-1,2.094926499E-2,2.100912035E-1,9.771335602E0,9.773616354E0
5.794390760E-1,3.052607179E-2,2.053027898E-1,9.785700798E0,9.787901776E0
5.819582950E-1,2.094926499E-2,2.196680009E-1,9.780912399E0,9.783401263E0
5.844775140E-1,2.094926499E-2,2.100912035E-1,9.766547203E0,9.768829073E0
5.869967320E-1,3.531447425E-2,2.148796022E-1,9.761758804E0,9.764187386E0
5.895159510E-1,3.052607179E-2,2.100912035E-1,9.780912399E0,9.783216113E0
5.920351700E-1,3.052607179E-2,2.100912035E-1,9.776124001E0,9.778428843E0
5.945544410E-1,3.531447425E-2,2.244564146E-1,9.785700798E0,9.788338363E0
5.970737640E-1,2.573766746E-2,2.436100245E-1,9.800065994E0,9.803127142E0
5.995931910E-1,2.573766746E-2,2.292448133E-1,9.795277596E0,9.797993610E0
6.021126700E-1,2.573766746E-2,2.292448133E-1,9.804854393E0,9.807567756E0
6.046322010E-1,4.010287672E-2,2.483984232E-1,9.800065994E0,9.803295543E0
6.071517850E-1,4.010287672E-2,2.579752207E-1,9.785700798E0,9.789182783E0
6.096714200E-1,4.010287672E-2,2.579752207E-1,9.785700798E0,9.789182783E0
6.121911070E-1,2.573766746E-2,2.627636492E-1,9.766547203E0,9.770115221E0
6.147108470E-1,3.531447425E-2,2.819172442E-1,9.790489197E0,9.794610924E0
6.172306390E-1,3.052607179E-2,2.531868219E-1,9.804854393E0,9.808170323E0
6.197504300E-1,3.531447425E-2,2.531868219E-1,9.800065994E0,9.803399623E0
6.222702220E-1,2.094926499E-2,2.627636492E-1,9.795277596E0,9.798823745E0
6.247898570E-1,3.052607179E-2,2.867056429E-1,9.800065994E0,9.804306475E0
6.273091800E-1,2.094926499E-2,2.867056429E-1,9.809642792E0,9.813854019E0
6.298281910E-1,1.616086066E-2,2.771288455E-1,9.814431190E0,9.818356337E0
6.323472010E-1,3.531447425E-2,2.723404467E-1,9.795277596E0,9.799126471E0
6.348662120E-1,3.052607179E-2,2.723404467E-1,9.790489197E0,9.794323860E0
6.373852220E-1,4.489128292E-2,2.867056429E-1,9.790489197E0,9.794789128E0
6.399042320E-1,3.531447425E-2,2.867056429E-1,9.790489197E0,9.794749918E0
6.424232950E-1,4.489128292E-2,2.771288455E-1,9.809642792E0,9.813659222E0
6.449424100E-1,4.489128292E-2,2.771288455E-1,9.819219589E0,9.823232104E0
6.474615760E-1,4.010287672E-2,2.771288455E-1,9.809642792E0,9.813638486E0
6.499807950E-1,3.052607179E-2,2.675520480E-1,9.809642792E0,9.813338252E0
6.525000660E-1,2.094926499E-2,2.819172442E-1,9.800065994E0,9.804142476E0
6.550194410E-1,2.573766746E-2,2.867056429E-1,9.809642792E0,9.813865408E0
6.575389200E-1,3.531447425E-2,2.723404467E-1,9.804854393E0,9.808699511E0
6.600585030E-1,3.531447425E-2,2.771288455E-1,9.795277596E0,9.799260721E0
6.625781910E-1,3.531447425E-2,2.819172442E-1,9.800065994E0,9.804183696E0
6.650979820E-1,4.010287672E-2,2.771288455E-1,9.785700798E0,9.789706265E0
6.676178780E-1,2.573766746E-2,2.627636492E-1,9.800065994E0,9.803621813E0
6.701378260E-1,1.616086066E-2,2.531868219E-1,9.814431190E0,9.817709730E0
6.726578260E-1,1.616086066E-2,2.627636492E-1,9.795277596E0,9.798814677E0
6.751778260E-1,3.052607179E-2,2.483984232E-1,9.804854393E0,9.808047884E0
6.776978260E-1,4.967968538E-2,2.531868219E-1,9.785700798E0,9.789101682E0
6.802176180E-1,3.531447425E-2,2.531868219E-1,9.780912399E0,9.784252554E0
6.827368370E-1,1.137245819E-2,2.436100245E-1,9.795277596E0,9.798313036E0
6.852560550E-1,3.052607179E-2,2.340332121E-1,9.785700798E0,9.788546547E0
6.877752740E-1,3.052607179E-2,2.340332121E-1,9.766547203E0,9.769398531E0
6.902944930E-1,4.010287672E-2,2.388216257E-1,9.761758804E0,9.764762105E0
6.928137120E-1,3.531447425E-2,2.292448133E-1,9.776124001E0,9.778875230E0
6.953329300E-1,3.052607179E-2,2.340332121E-1,9.790489197E0,9.793333554E0
6.978521490E-1,3.052607179E-2,2.053027898E-1,9.780912399E0,9.783114455E0
7.003713680E-1,1.137245819E-2,2.005143911E-1,9.795277596E0,9.797336298E0
7.028905870E-1,2.573766746E-2,2.100912035E-1,9.804854393E0,9.807138747E0
7.054098050E-1,4.489128292E-2,2.148796022E-1,9.795277596E0,9.797737068E0
7.079290240E-1,3.052607179E-2,1.909375787E-1,9.780912399E0,9.782823537E0
7.104482430E-1,4.010287672E-2,2.005143911E-1,9.790489197E0,9.792624417E0
7.129674620E-1,3.531447425E-2,2.148796022E-1,9.790489197E0,9.792910654E0
7.154867320E-1,2.094926499E-2,2.244564146E-1,9.795277596E0,9.797871337E0
7.180060550E-1,4.010287672E-2,2.053027898E-1,9.785700798E0,9.787936329E0
7.205254300E-1,4.967968538E-2,2.005143911E-1,9.804854393E0,9.807030323E0
7.230448570E-1,4.010287672E-2,2.005143911E-1,9.795277596E0,9.797411772E0
7.255643370E-1,2.094926499E-2,2.148796022E-1,9.780912399E0,9.783294919E0
7.280838680E-1,1.616086066E-2,1.957259923E-1,9.776124001E0,9.778096456E0
7.306034510E-1,3.052607179E-2,2.005143911E-1,9.785700798E0,9.787802510E0
7.331230870E-1,3.531447425E-2,2.196680009E-1,9.776124001E0,9.778655409E0
7.356427740E-1,4.010287672E-2,2.053027898E-1,9.776124001E0,9.778361721E0
7.381625140E-1,3.531447425E-2,1.957259923E-1,9.795277596E0,9.797296512E0
7.406823050E-1,3.531447425E-2,2.005143911E-1,9.780912399E0,9.783031253E0
7.432021490E-1,4.010287672E-2,2.196680009E-1,9.795277596E0,9.797822485E0
7.457220450E-1,3.052607179E-2,2.005143911E-1,9.795277596E0,9.797377253E0
7.482419410E-1,1.616086066E-2,2.005143911E-1,9.800065994E0,9.802130416E0
7.507618370E-1,1.616086066E-2,2.100912035E-1,9.795277596E0,9.797543705E0
7.532817320E-1,1.616086066E-2,2.005143911E-1,9.785700798E0,9.787768249E0
7.558015240E-1,3.052607179E-2,2.100912035E-1,9.814431190E0,9.816727038E0
7.583207430E-1,1.616086066E-2,2.148796022E-1,9.819219589E0,9.821583770E0
7.608399620E-1,1.795651275E-3,2.292448133E-1,9.800065994E0,9.802747059E0
7.633591800E-1,-2.992752008E-3,2.388216257E-1,9.795277596E0,9.798189011E0
7.658783990E-1,1.616086066E-2,2.292448133E-1,9.814431190E0,9.817121470E0
7.683976180E-1,1.616086066E-2,2.436100245E-1,9.785700798E0,9.788745942E0
7.709168370E-1,2.094926499E-2,2.436100245E-1,9.776124001E0,9.779181213E0
7.734360550E-1,2.573766746E-2,2.483984232E-1,9.785700798E0,9.788886776E0
7.759552740E-1,3.052607179E-2,2.531868219E-1,9.771335602E0,9.774662902E0
7.784745450E-1,4.489128292E-2,2.723404467E-1,9.780912399E0,9.784806176E0
7.809938680E-1,3.531447425E-2,2.723404467E-1,9.766547203E0,9.770407397E0
7.835132430E-1,2.573766746E-2,2.771288455E-1,9.766547203E0,9.770512120E0
7.860327220E-1,4.010287672E-2,2.531868219E-1,9.776124001E0,9.779484254E0
7.885523050E-1,3.531447425E-2,2.579752207E-1,9.776124001E0,9.779590932E0
7.910719930E-1,3.531447425E-2,2.483984232E-1,9.790489197E0,9.793703467E0
7.935917320E-1,4.489128292E-2,2.627636492E-1,9.800065994E0,9.803690808E0
7.961115240E-1,4.489128292E-2,2.723404467E-1,9.795277596E0,9.799165664E0
7.986313680E-1,4.010287672E-2,2.867056429E-1,9.814431190E0,9.818699912E0
8.011512640E-1,3.531447425E-2,2.771288455E-1,9.790489197E0,9.794474270E0
8.036711600E-1,5.446808785E-2,2.771288455E-1,9.804854393E0,9.808921288E0
8.061910550E-1,4.010287672E-2,2.723404467E-1,9.790489197E0,9.794358390E0
8.087109510E-1,3.531447425E-2,2.675520480E-1,9.795277596E0,9.798994560E0
8.112308470E-1,4.489128292E-2,2.627636492E-1,9.804854393E0,9.808477437E0
8.137507430E-1,3.531447425E-2,2.627636492E-1,9.819219589E0,9.822798236E0
8.162700660E-1,4.967968538E-2,2.531868219E-1,9.828796387E0,9.832182365E0
8.187890240E-1,3.052607179E-2,2.579752207E-1,9.833584785E0,9.837015441E0
8.213079820E-1,4.010287672E-2,2.531868219E-1,9.833584785E0,9.836925411E0
8.238269410E-1,3.531447425E-2,2.483984232E-1,9.819219589E0,9.822424458E0
8.263458990E-1,3.052607179E-2,2.436100245E-1,9.814431190E0,9.817501580E0
8.288648570E-1,2.094926499E-2,2.340332121E-1,9.804854393E0,9.807669452E0
8.313838680E-1,4.967968538E-2,2.292448133E-1,9.814431190E0,9.817233869E0
8.339029300E-1,5.446808785E-2,2.292448133E-1,9.809642792E0,9.812472250E0
8.364220450E-1,4.489128292E-2,2.340332121E-1,9.809642792E0,9.812536801E0
8.389412120E-1,4.010287672E-2,2.436100245E-1,9.824007988E0,9.827109801E0
8.414604300E-1,4.489128292E-2,2.388216257E-1,9.800065994E0,9.803078317E0
8.439797010E-1,4.010287672E-2,2.292448133E-1,9.828796387E0,9.831551243E0
8.464990240E-1,2.573766746E-2,2.148796022E-1,9.819219589E0,9.821604198E0
8.490183990E-1,3.052607179E-2,2.292448133E-1,9.790489197E0,9.793220295E0
8.515378260E-1,3.531447425E-2,2.148796022E-1,9.804854393E0,9.807272303E0
8.540572530E-1,2.094926499E-2,1.957259923E-1,9.804854393E0,9.806830130E0
8.565766800E-1,1.616086066E-2,1.909375787E-1,9.790489197E0,9.792364221E0
8.590961070E-1,2.094926499E-2,2.005143911E-1,9.790489197E0,9.792564710E0
8.616155870E-1,2.094926499E-2,1.957259923E-1,9.790489197E0,9.792467832E0
8.641351180E-1,1.616086066E-2,1.957259923E-1,9.785700798E0,9.787671324E0
8.666547010E-1,3.052607179E-2,1.717839688E-1,9.776124001E0,9.777680811E0
8.691742850E-1,2.573766746E-2,1.765723825E-1,9.780912399E0,9.782539936E0
8.716938680E-1,3.531447425E-2,2.005143911E-1,9.795277596E0,9.797393342E0
8.742134510E-1,1.616086066E-2,1.909375787E-1,9.785700798E0,9.787576740E0
8.767329820E-1,1.137245819E-2,1.813607812E-1,9.804854393E0,9.806538163E0
8.792523570E-1,1.137245819E-2,1.909375787E-1,9.795277596E0,9.797144975E0
8.817717320E-1,1.616086066E-2,1.813607812E-1,9.785700798E0,9.787394598E0
8.842911070E-1,2.094926499E-2,2.005143911E-1,9.752182007E0,9.754265671E0
8.868104820E-1,1.616086066E-2,1.861491799E-1,9.733028412E0,9.734821763E0
8.893298570E-1,1.616086066E-2,1.717839688E-1,9.752182007E0,9.753708259E0
8.918492320E-1,2.573766746E-2,1.765723825E-1,9.766547203E0,9.768177133E0
8.943686070E-1,2.573766746E-2,1.861491799E-1,9.776124001E0,9.777929966E0
8.968879820E-1,2.573766746E-2,1.957259923E-1,9.785700798E0,9.787691822E0
8.994073570E-1,2.094926499E-2,2.100912035E-1,9.766547203E0,9.768829073E0
9.019267320E-1,1.137245819E-2,2.053027898E-1,9.785700798E0,9.787860781E0
9.044461070E-1,1.795651275E-3,1.957259923E-1,9.785700798E0,9.787658147E0
9.069652220E-1,1.795651275E-3,2.244564146E-1,9.785700798E0,9.788274823E0
9.094843370E-1,1.137245819E-2,2.100912035E-1,9.800065994E0,9.802324272E0
9.120033990E-1,2.094926499E-2,2.005143911E-1,9.785700798E0,9.787777327E0
9.145224620E-1,2.573766746E-2,2.244564146E-1,9.780912399E0,9.783521374E0
9.170415240E-1,2.094926499E-2,2.340332121E-1,9.795277596E0,9.798095406E0
9.195605870E-1,6.584054790E-3,2.388216257E-1,9.814431190E0,9.817338678E0
9.220796490E-1,1.137245819E-2,2.436100245E-1,9.804854393E0,9.807886869E0
9.245987120E-1,1.616086066E-2,2.340332121E-1,9.795277596E0,9.798086338E0
9.271177740E-1,1.137245819E-2,2.388216257E-1,9.819219589E0,9.822130036E0
9.296368890E-1,3.052607179E-2,2.483984232E-1,9.814431190E0,9.817621566E0
9.321560550E-1,2.094926499E-2,2.627636492E-1,9.800065994E0,9.803610411E0
9.346752740E-1,2.573766746E-2,2.579752207E-1,9.800065994E0,9.803494639E0
9.371945450E-1,3.531447425E-2,2.675520480E-1,9.790489197E0,9.794207978E0
9.397138680E-1,4.010287672E-2,2.627636492E-1,9.795277596E0,9.798883413E0
9.422332950E-1,4.967968538E-2,2.819172442E-1,9.804854393E0,9.809032321E0
9.447528260E-1,4.489128292E-2,2.771288455E-1,9.804854393E0,9.808872784E0
9.472724620E-1,4.967968538E-2,2.819172442E-1,9.795277596E0,9.799459606E0
9.497921490E-1,3.052607179E-2,3.010708690E-1,9.795277596E0,9.799950953E0
9.523118890E-1,1.616086066E-2,2.962824702E-1,9.790489197E0,9.794984594E0
9.548316800E-1,3.052607179E-2,2.819172442E-1,9.795277596E0,9.799381223E0
9.573515240E-1,2.573766746E-2,2.867056429E-1,9.795277596E0,9.799506402E0
9.598713680E-1,3.052607179E-2,3.010708690E-1,9.776124001E0,9.780806510E0
9.623912120E-1,4.010287672E-2,3.058592677E-1,9.780912399E0,9.785775672E0
9.649110550E-1,3.531447425E-2,3.154360652E-1,9.790489197E0,9.795632993E0
9.674308990E-1,3.531447425E-2,3.010708690E-1,9.785700798E0,9.790394828E0
9.699506390E-1,4.489128292E-2,2.867056429E-1,9.771335602E0,9.775643958E0
9.724703260E-1,4.967968538E-2,2.819172442E-1,9.756970406E0,9.761168829E0
9.749896490E-1,4.489128292E-2,2.771288455E-1,9.761758804E0,9.765794928E0
9.775089720E-1,3.531447425E-2,2.867056429E-1,9.780912399E0,9.785177290E0
9.800282950E-1,3.531447425E-2,2.819172442E-1,9.785700798E0,9.789824541E0
9.825476180E-1,3.531447425E-2,2.723404467E-1,9.780912399E0,9.784766926E0
9.850669410E-1,4.010287672E-2,2.675520480E-1,9.780912399E0,9.784653274E0
9.875862640E-1,3.531447425E-2,2.627636492E-1,9.790489197E0,9.794078342E0
9.901056390E-1,2.094926499E-2,2.579752207E-1,9.795277596E0,9.798696508E0
9.926250660E-1,3.531447425E-2,2.675520480E-1,9.785700798E0,9.789421399E0
9.951445450E-1,3.052607179E-2,2.579752207E-1,9.795277596E0,9.798721663E0
9.976640240E-1,4.489128292E-2,2.436100245E-1,9.809642792E0,9.812769883E0
1.000183503E0,4.010287672E-2,2.388216257E-1,9.800065994E0,9.803057559E0
1.002702982E0,3.531447425E-2,2.292448133E-1,9.833584785E0,9.836319943E0
1.005222462E0,3.531447425E-2,2.244564146E-1,9.819219589E0,9.821848153E0
1.007741941E0,2.573766746E-2,2.244564146E-1,9.819219589E0,9.821818388E0
1.010261420E0,2.573766746E-2,2.100912035E-1,9.809642792E0,9.811926031E0
1.012780899E0,2.573766746E-2,2.148796022E-1,9.819219589E0,9.821604198E0
1.015300378E0,2.094926499E-2,2.196680009E-1,9.814431190E0,9.816911556E0
1.017819857E0,1.616086066E-2,2.292448133E-1,9.814431190E0,9.817121470E0
1.020339180E0,2.094926499E-2,2.292448133E-1,9.800065994E0,9.802769280E0
1.022858139E0,3.052607179E-2,2.100912035E-1,9.780912399E0,9.783216113E0
1.025377097E0,1.616086066E-2,2.053027898E-1,9.795277596E0,9.797442196E0
1.027896055E0,3.052607179E-2,1.957259923E-1,9.785700798E0,9.787705585E0
1.030415014E0,2.094926499E-2,1.861491799E-1,9.785700798E0,9.787493576E0
1.032933972E0,2.094926499E-2,1.861491799E-1,9.785700798E0,9.787493576E0
1.035452930E0,2.573766746E-2,1.861491799E-1,9.804854393E0,9.806655067E0
1.037971889E0,2.094926499E-2,1.957259923E-1,9.800065994E0,9.802042697E0
1.040490847E0,1.616086066E-2,1.861491799E-1,9.790489197E0,9.792272025E0
1.043009805E0,3.052607179E-2,1.765723825E-1,9.790489197E0,9.792128898E0
1.045528764E0,2.573766746E-2,1.717839688E-1,9.795277596E0,9.796817613E0
1.048047722E0,2.573766746E-2,1.861491799E-1,9.776124001E0,9.777929966E0
1.050566680E0,3.052607179E-2,1.813607812E-1,9.780912399E0,9.782641307E0
1.053085639E0,2.094926499E-2,1.669955701E-1,9.800065994E0,9.801511102E0
1.055604597E0,2.573766746E-2,1.765723825E-1,9.795277596E0,9.796902746E0
1.058123555E0,2.573766746E-2,1.813607812E-1,9.785700798E0,9.787415096E0
1.060642566E0,3.052607179E-2,1.861491799E-1,9.785700798E0,9.787518759E0
1.063161628E0,2.573766746E-2,1.861491799E-1,9.771335602E0,9.773142452E0
1.065680743E0,3.052607179E-2,1.813607812E-1,9.785700798E0,9.787428860E0
1.068199910E0,2.094926499E-2,1.909375787E-1,9.776124001E0,9.778010866E0
1.070719128E0,2.094926499E-2,1.861491799E-1,9.776124001E0,9.777918534E0
1.073238399E0,3.052607179E-2,1.957259923E-1,9.785700798E0,9.787705585E0
1.075757722E0,3.052607179E-2,2.005143911E-1,9.761758804E0,9.763865670E0
1.078277097E0,4.010287672E-2,2.100912035E-1,9.776124001E0,9.778463429E0
1.080796524E0,3.052607179E-2,2.100912035E-1,9.771335602E0,9.773641573E0
1.083316003E0,3.531447425E-2,2.053027898E-1,9.790489197E0,9.792705196E0
1.085835535E0,4.967968538E-2,2.148796022E-1,9.790489197E0,9.792972992E0
1.088355118E0,4.489128292E-2,2.196680009E-1,9.785700798E0,9.788268967E0
1.090874753E0,3.531447425E-2,2.244564146E-1,9.800065994E0,9.802699694E0
1.093394441E0,3.052607179E-2,2.148796022E-1,9.776124001E0,9.778532894E0
1.095914180E0,2.094926499E-2,2.244564146E-1,9.790489197E0,9.793084206E0
1.098433920E0,2.573766746E-2,2.483984232E-1,9.809642792E0,9.812820996E0
1.100953660E0,2.573766746E-2,2.531868219E-1,9.814431190E0,9.817730165E0
1.103473399E0,3.052607179E-2,2.579752207E-1,9.819219589E0,9.822655262E0
1.105993139E0,4.010287672E-2,2.531868219E-1,9.809642792E0,9.812991568E0
1.108512618E0,3.531447425E-2,2.436100245E-1,9.814431190E0,9.817517637E0
1.111031993E0,3.052607179E-2,2.483984232E-1,9.814431190E0,9.817621566E0
1.113551368E0,4.010287672E-2,2.579752207E-1,9.804854393E0,9.808329579E0
1.116070743E0,4.010287672E-2,2.531868219E-1,9.800065994E0,9.803418042E0
1.118590118E0,4.010287672E-2,2.723404467E-1,9.790489197E0,9.794358390E0
1.121109493E0,4.489128292E-2,2.723404467E-1,9.800065994E0,9.803952164E0
1.123628868E0,4.489128292E-2,2.723404467E-1,9.804854393E0,9.808738666E0
1.126148295E0,3.531447425E-2,2.819172442E-1,9.795277596E0,9.799397309E0
1.128667774E0,3.052607179E-2,2.867056429E-1,9.809642792E0,9.813879135E0
1.131187305E0,1.137245819E-2,2.723404467E-1,9.819219589E0,9.823002188E0
1.133706889E0,2.573766746E-2,2.723404467E-1,9.828796387E0,9.832602410E0
1.136226524E0,2.573766746E-2,2.771288455E-1,9.800065994E0,9.804017356E0
1.138746212E0,3.531447425E-2,2.867056429E-1,9.800065994E0,9.804322553E0
1.141265951E0,5.446808785E-2,2.867056429E-1,9.819219589E0,9.823555377E0
1.143785743E0,4.967968538E-2,2.867056429E-1,9.809642792E0,9.813957403E0
1.146305587E0,4.010287672E-2,2.819172442E-1,9.819219589E0,9.823347643E0
1.148825430E0,4.489128292E-2,2.867056429E-1,9.809642792E0,9.813934331E0
1.151345274E0,2.094926499E-2,2.771288455E-1,9.795277596E0,9.799219481E0
1.153865118E0,2.573766746E-2,2.723404467E-1,9.790489197E0,9.794310106E0
1.156384597E0,3.531447425E-2,2.627636492E-1,9.790489197E0,9.794078342E0
1.158903920E0,2.573766746E-2,2.579752207E-1,9.776124001E0,9.779561039E0
1.161423243E0,4.489128292E-2,2.579752207E-1,9.785700798E0,9.789203571E0
1.163942566E0,3.531447425E-2,2.579752207E-1,9.780912399E0,9.784377634E0
1.166461576E0,3.052607179E-2,2.436100245E-1,9.795277596E0,9.798353987E0
1.168980587E0,3.531447425E-2,2.579752207E-1,9.795277596E0,9.798737750E0
1.171499597E0,2.573766746E-2,2.483984232E-1,9.804854393E0,9.808034149E0
1.174018607E0,2.573766746E-2,2.340332121E-1,9.790489197E0,9.793319799E0
1.176537618E0,1.137245819E-2,2.340332121E-1,9.776124001E0,9.778931504E0
1.179056680E0,2.094926499E-2,2.340332121E-1,9.776124001E0,9.778947330E0
1.181575795E0,3.531447425E-2,2.244564146E-1,9.776124001E0,9.778764148E0
1.184094962E0,3.052607179E-2,2.340332121E-1,9.771335602E0,9.774185533E0
1.186614232E0,2.094926499E-2,2.053027898E-1,9.776124001E0,9.778301927E0
1.189133607E0,2.573766746E-2,2.100912035E-1,9.780912399E0,9.783202344E0
1.191653087E0,1.137245819E-2,2.100912035E-1,9.785700798E0,9.787962390E0
1.194172670E0,1.616086066E-2,2.005143911E-1,9.790489197E0,9.792555637E0
1.196692357E0,2.094926499E-2,2.053027898E-1,9.785700798E0,9.787876594E0
1.199212097E0,6.584054790E-3,1.861491799E-1,9.776124001E0,9.777898309E0
1.201731889E0,1.795651275E-3,1.813607812E-1,9.776124001E0,9.777806269E0
1.204251732E0,1.137245819E-2,1.957259923E-1,9.790489197E0,9.792452027E0
1.206771628E0,2.573766746E-2,2.005143911E-1,9.785700798E0,9.787788747E0
1.209291576E0,1.616086066E-2,2.005143911E-1,9.795277596E0,9.797343026E0
1.211811524E0,1.616086066E-2,1.861491799E-1,9.795277596E0,9.797059552E0
1.214331472E0,2.094926499E-2,1.909375787E-1,9.795277596E0,9.797160773E0
1.216851003E0,3.052607179E-2,2.005143911E-1,9.776124001E0,9.778227771E0
1.219370482E0,4.010287672E-2,2.100912035E-1,9.771335602E0,9.773676176E0
1.221889910E0,2.094926499E-2,1.957259923E-1,9.771335602E0,9.773318115E0
1.224409128E0,2.094926499E-2,2.005143911E-1,9.780912399E0,9.782989945E0
1.226928347E0,2.094926499E-2,2.100912035E-1,9.785700798E0,9.787978203E0
1.229447566E0,2.094926499E-2,2.100912035E-1,9.780912399E0,9.783190919E0
1.231966785E0,2.573766746E-2,2.053027898E-1,9.800065994E0,9.802250005E0
1.234486003E0,1.137245819E-2,2.148796022E-1,9.800065994E0,9.802428070E0
1.237005274E0,2.573766746E-2,2.244564146E-1,9.790489197E0,9.793095620E0
1.239524597E0,2.573766746E-2,2.196680009E-1,9.776124001E0,9.778625513E0
1.242043972E0,1.616086066E-2,2.148796022E-1,9.795277596E0,9.797647554E0
1.244563399E0,1.616086066E-2,2.053027898E-1,9.780912399E0,9.783080178E0
1.247082878E0,3.052607179E-2,2.292448133E-1,9.785700798E0,9.788433232E0
1.249602410E0,3.531447425E-2,2.292448133E-1,9.800065994E0,9.802810505E0
1.252121993E0,2.094926499E-2,2.244564146E-1,9.790489197E0,9.793084206E0
1.254641628E0,3.052607179E-2,2.292448133E-1,9.800065994E0,9.802794424E0
1.257161264E0,5.446808785E-2,2.388216257E-1,9.804854393E0,9.807913754E0
1.259680899E0,3.052607179E-2,2.388216257E-1,9.800065994E0,9.803023059E0
1.262200535E0,6.584054790E-3,2.436100245E-1,9.771335602E0,9.774374079E0
1.264720118E0,2.573766746E-2,2.483984232E-1,9.800065994E0,9.803247304E0
1.267239285E0,2.573766746E-2,2.436100245E-1,9.800065994E0,9.803127142E0
1.269758451E0,3.052607179E-2,2.531868219E-1,9.795277596E0,9.798596766E0
1.272277618E0,3.531447425E-2,2.531868219E-1,9.780912399E0,9.784252554E0
1.274796785E0,4.010287672E-2,2.579752207E-1,9.790489197E0,9.793969480E0
1.277316003E0,3.531447425E-2,2.579752207E-1,9.804854393E0,9.808311169E0
1.279835274E0,4.010287672E-2,2.531868219E-1,9.800065994E0,9.803418042E0
1.282354545E0,4.010287672E-2,2.579752207E-1,9.804854393E0,9.808329579E0
1.284873816E0,4.010287672E-2,2.771288455E-1,9.780912399E0,9.784919826E0
1.287393087E0,2.573766746E-2,2.771288455E-1,9.795277596E0,9.799230888E0
1.289912357E0,3.052607179E-2,2.627636492E-1,9.780912399E0,9.784488946E0
1.292431628E0,2.573766746E-2,2.627636492E-1,9.766547203E0,9.770115221E0
1.294950899E0,3.531447425E-2,2.675520480E-1,9.785700798E0,9.789421399E0
1.297470170E0,3.052607179E-2,2.819172442E-1,9.800065994E0,9.804167617E0
1.299989441E0,2.094926499E-2,2.531868219E-1,9.790489197E0,9.793784823E0
1.302508712E0,3.052607179E-2,2.627636492E-1,9.800065994E0,9.803635554E0
1.305027982E0,1.616086066E-2,2.723404467E-1,9.809642792E0,9.813435800E0
1.307547253E0,1.616086066E-2,2.579752207E-1,9.814431190E0,9.817834383E0
1.310066524E0,2.573766746E-2,2.531868219E-1,9.814431190E0,9.817730165E0
1.312585795E0,2.573766746E-2,2.388216257E-1,9.809642792E0,9.812583243E0
1.315105066E0,1.616086066E-2,2.292448133E-1,9.795277596E0,9.797973134E0
1.317624337E0,2.573766746E-2,2.244564146E-1,9.795277596E0,9.797882745E0
1.320143607E0,4.010287672E-2,2.388216257E-1,9.790489197E0,9.793483687E0
1.322662878E0,3.531447425E-2,2.436100245E-1,9.800065994E0,9.803156963E0
1.325182149E0,3.052607179E-2,2.483984232E-1,9.795277596E0,9.798474207E0
1.327701420E0,3.531447425E-2,2.388216257E-1,9.790489197E0,9.793465250E0
1.330220743E0,2.573766746E-2,2.148796022E-1,9.790489197E0,9.792880801E0
1.332740118E0,2.573766746E-2,2.148796022E-1,9.785700798E0,9.788093572E0
1.335259545E0,2.573766746E-2,2.005143911E-1,9.790489197E0,9.792576125E0
1.337779024E0,2.573766746E-2,1.957259923E-1,9.800065994E0,9.802054100E0
1.340298555E0,3.531447425E-2,1.861491799E-1,9.800065994E0,9.801897374E0
1.342818139E0,1.616086066E-2,1.957259923E-1,9.785700798E0,9.787671324E0
1.345337722E0,1.137245819E-2,2.005143911E-1,9.790489197E0,9.792548905E0
1.347857305E0,1.616086066E-2,1.957259923E-1,9.800065994E0,9.802033632E0
1.350376941E0,2.094926499E-2,1.813607812E-1,9.804854393E0,9.806553945E0
1.352896576E0,2.094926499E-2,1.669955701E-1,9.819219589E0,9.820661879E0
1.355416212E0,1.616086066E-2,1.669955701E-1,9.800065994E0,9.801502037E0
1.357935847E0,2.573766746E-2,1.622071713E-1,9.790489197E0,9.791866641E0
1.360455482E0,2.094926499E-2,1.717839688E-1,9.790489197E0,9.792018552E0
1.362975118E0,2.573766746E-2,1.765723825E-1,9.766547203E0,9.768177133E0
1.365494753E0,2.094926499E-2,1.622071713E-1,9.771335602E0,9.772704307E0
1.368014389E0,1.795651275E-3,1.622071713E-1,9.776124001E0,9.777469758E0
1.370534024E0,1.616086066E-2,1.574187577E-1,9.800065994E0,9.801343547E0
1.373053660E0,4.010287672E-2,1.717839688E-1,9.790489197E0,9.792078262E0
1.375573295E0,5.446808785E-2,1.861491799E-1,9.790489197E0,9.792410173E0
1.378092930E0,3.052607179E-2,1.765723825E-1,9.785700798E0,9.787341302E0
1.380612566E0,2.573766746E-2,1.669955701E-1,9.790489197E0,9.791947133E0
1.383132149E0,3.531447425E-2,1.765723825E-1,9.780912399E0,9.782569820E0
1.385651316E0,3.531447425E-2,1.813607812E-1,9.795277596E0,9.797020058E0
1.388170482E0,4.010287672E-2,1.765723825E-1,9.800065994E0,9.801738598E0
1.390689649E0,3.531447425E-2,1.765723825E-1,9.804854393E0,9.806507767E0
1.393208816E0,3.052607179E-2,1.909375787E-1,9.800065994E0,9.801973398E0
1.395727982E0,3.052607179E-2,1.909375787E-1,9.800065994E0,9.801973398E0
1.398247149E0,4.967968538E-2,1.957259923E-1,9.809642792E0,9.811720972E0
1.400766368E0,3.052607179E-2,2.005143911E-1,9.804854393E0,9.806952000E0
1.403285639E0,2.573766746E-2,1.957259923E-1,9.795277596E0,9.797266673E0
1.405804910E0,2.094926499E-2,2.053027898E-1,9.809642792E0,9.811813278E0
1.408324232E0,3.531447425E-2,2.196680009E-1,9.790489197E0,9.793016892E0
1.410843607E0,4.967968538E-2,2.196680009E-1,9.800065994E0,9.802653498E0
1.413363035E0,4.489128292E-2,2.196680009E-1,9.814431190E0,9.816991843E0
1.415882514E0,3.531447425E-2,2.292448133E-1,9.809642792E0,9.812384623E0
1.418402097E0,4.489128292E-2,2.244564146E-1,9.804854393E0,9.807525966E0
1.420921732E0,4.489128292E-2,2.244564146E-1,9.800065994E0,9.802738872E0
1.423441420E0,3.531447425E-2,2.292448133E-1,9.804854393E0,9.807597563E0
1.425961107E0,2.094926499E-2,2.340332121E-1,9.809642792E0,9.812456477E0
1.428480795E0,3.531447425E-2,2.579752207E-1,9.785700798E0,9.789164338E0
1.431000482E0,2.573766746E-2,2.579752207E-1,9.771335602E0,9.774774324E0
1.433520170E0,3.531447425E-2,2.579752207E-1,9.785700798E0,9.789164338E0
1.436039857E0,4.489128292E-2,2.436100245E-1,9.780912399E0,9.784048673E0
1.438559545E0,4.489128292E-2,2.483984232E-1,9.780912399E0,9.784169069E0
1.441079128E0,4.489128292E-2,2.675520480E-1,9.790489197E0,9.794247191E0
1.443598660E0,4.010287672E-2,2.819172442E-1,9.795277596E0,9.799415735E0
1.446118191E0,4.010287672E-2,2.627636492E-1,9.800065994E0,9.803670051E0
1.448637670E0,4.010287672E-2,2.723404467E-1,9.780912399E0,9.784785379E0
1.451156941E0,3.052607179E-2,2.723404467E-1,9.785700798E0,9.789537337E0
1.453676212E0,3.052607179E-2,2.579752207E-1,9.809642792E0,9.813081818E0
1.456195482E0,3.052607179E-2,2.627636492E-1,9.790489197E0,9.794062247E0
1.458714753E0,3.531447425E-2,2.627636492E-1,9.795277596E0,9.798864986E0
1.461234024E0,3.531447425E-2,2.675520480E-1,9.795277596E0,9.798994560E0
1.463753295E0,4.489128292E-2,2.675520480E-1,9.790489197E0,9.794247191E0
1.466272566E0,5.446808785E-2,2.771288455E-1,9.790489197E0,9.794562057E0
1.468791837E0,4.010287672E-2,2.819172442E-1,9.795277596E0,9.799415735E0
1.471311107E0,2.573766746E-2,2.723404467E-1,9.795277596E0,9.799096638E0
1.473830378E0,3.052607179E-2,2.723404467E-1,9.790489197E0,9.794323860E0
1.476349649E0,2.573766746E-2,2.627636492E-1,9.804854393E0,9.808408476E0
1.478868712E0,2.094926499E-2,2.627636492E-1,9.804854393E0,9.808397080E0
1.481387514E0,3.052607179E-2,2.579752207E-1,9.809642792E0,9.813081818E0
1.483906316E0,3.052607179E-2,2.675520480E-1,9.800065994E0,9.803765064E0
1.486425118E0,2.573766746E-2,2.531868219E-1,9.795277596E0,9.798583018E0
1.488943920E0,2.573766746E-2,2.436100245E-1,9.800065994E0,9.803127142E0
1.491462774E0,2.573766746E-2,2.388216257E-1,9.795277596E0,9.798222358E0
1.493981680E0,1.137245819E-2,2.340332121E-1,9.790489197E0,9.793292582E0
1.496500639E0,6.584054790E-3,2.388216257E-1,9.804854393E0,9.807764719E0
1.499019701E0,2.094926499E-2,2.436100245E-1,9.819219589E0,9.822263388E0
1.501538868E0,1.616086066E-2,2.292448133E-1,9.785700798E0,9.788398974E0
1.504058139E0,1.137245819E-2,2.244564146E-1,9.766547203E0,9.769132729E0
1.506577514E0,6.584054790E-3,2.292448133E-1,9.790489197E0,9.793174932E0
1.509096993E0,1.137245819E-2,2.292448133E-1,9.795277596E0,9.797966406E0
1.511616576E0,2.094926499E-2,2.005143911E-1,9.795277596E0,9.797352095E0
1.514136264E0,3.531447425E-2,1.957259923E-1,9.800065994E0,9.802083925E0
1.516656003E0,3.531447425E-2,2.148796022E-1,9.790489197E0,9.792910654E0
1.519175795E0,3.052607179E-2,2.148796022E-1,9.795277596E0,9.797681780E0
1.521695639E0,2.573766746E-2,2.196680009E-1,9.800065994E0,9.802561397E0
1.524215482E0,2.573766746E-2,2.005143911E-1,9.809642792E0,9.811725646E0
1.526735326E0,3.052607179E-2,1.957259923E-1,9.800065994E0,9.802067843E0
1.529255170E0,3.531447425E-2,2.053027898E-1,9.790489197E0,9.792705196E0
1.531775014E0,4.010287672E-2,2.053027898E-1,9.780912399E0,9.783149025E0
1.534294857E0,3.052607179E-2,2.053027898E-1,9.756970406E0,9.759177864E0
1.536814701E0,4.967968538E-2,1.957259923E-1,9.771335602E0,9.773421928E0
1.539334545E0,4.489128292E-2,1.861491799E-1,9.776124001E0,9.777999142E0
1.541854389E0,3.531447425E-2,2.005143911E-1,9.785700798E0,9.787818615E0
1.544374024E0,4.010287672E-2,1.861491799E-1,9.785700798E0,9.787553314E0
1.546893243E0,3.531447425E-2,1.909375787E-1,9.790489197E0,9.792414563E0
1.549412462E0,3.052607179E-2,1.957259923E-1,9.790489197E0,9.792493003E0
1.551931680E0,3.531447425E-2,1.813607812E-1,9.795277596E0,9.797020058E0
1.554450899E0,3.531447425E-2,1.861491799E-1,9.800065994E0,9.801897374E0
1.556970170E0,3.052607179E-2,2.100912035E-1,9.795277596E0,9.797577932E0
1.559489493E0,3.052607179E-2,1.957259923E-1,9.785700798E0,9.787705585E0
1.562008868E0,3.531447425E-2,2.100912035E-1,9.785700798E0,9.788019490E0
1.564528295E0,3.531447425E-2,2.053027898E-1,9.804854393E0,9.807067146E0
1.567047774E0,4.489128292E-2,2.005143911E-1,9.804854393E0,9.807007235E0
1.569567305E0,3.531447425E-2,2.244564146E-1,9.800065994E0,9.802699694E0
1.572086889E0,3.052607179E-2,2.196680009E-1,9.785700798E0,9.788213626E0
1.574606524E0,3.531447425E-2,2.196680009E-1,9.785700798E0,9.788229730E0
1.577126212E0,3.052607179E-2,2.292448133E-1,9.795277596E0,9.798007359E0
1.579645951E0,3.052607179E-2,2.292448133E-1,9.800065994E0,9.802794424E0
1.582165743E0,3.052607179E-2,2.292448133E-1,9.800065994E0,9.802794424E0
1.584685587E0,2.573766746E-2,2.388216257E-1,9.804854393E0,9.807796280E0
1.587205430E0,3.531447425E-2,2.196680009E-1,9.790489197E0,9.793016892E0
1.589725326E0,4.489128292E-2,2.244564146E-1,9.780912399E0,9.783590510E0
1.592245274E0,4.489128292E-2,2.244564146E-1,9.785700798E0,9.788377599E0
1.594765222E0,3.531447425E-2,2.388216257E-1,9.800065994E0,9.803039140E0
1.597285170E0,3.531447425E-2,2.244564146E-1,9.795277596E0,9.797912582E0
1.599805118E0,4.489128292E-2,2.292448133E-1,9.785700798E0,9.788488572E0
1.602325066E0,2.573766746E-2,2.244564146E-1,9.780912399E0,9.783521374E0
1.604845014E0,2.573766746E-2,2.244564146E-1,9.795277596E0,9.797882745E0
1.607364962E0,3.531447425E-2,2.388216257E-1,9.809642792E0,9.812613035E0
1.609884597E0,3.531447425E-2,2.436100245E-1,9.800065994E0,9.803156963E0
1.612404232E0,2.573766746E-2,2.436100245E-1,9.814431190E0,9.817487859E0
1.614923868E0,2.573766746E-2,2.436100245E-1,9.800065994E0,9.803127142E0
1.617443503E0,4.010287672E-2,2.483984232E-1,9.790489197E0,9.793721904E0
1.619963139E0,4.010287672E-2,2.531868219E-1,9.800065994E0,9.803418042E0
1.622482774E0,2.573766746E-2,2.531868219E-1,9.814431190E0,9.817730165E0
1.625002410E0,2.094926499E-2,2.436100245E-1,9.814431190E0,9.817476474E0
1.627521993E0,2.094926499E-2,2.531868219E-1,9.790489197E0,9.793784823E0
1.630041420E0,4.010287672E-2,2.579752207E-1,9.804854393E0,9.808329579E0
1.632560847E0,2.573766746E-2,2.340332121E-1,9.795277596E0,9.798106814E0
1.635080274E0,4.010287672E-2,2.244564146E-1,9.800065994E0,9.802718114E0
1.637599701E0,2.573766746E-2,2.148796022E-1,9.814431190E0,9.816816962E0
1.640119128E0,3.531447425E-2,2.196680009E-1,9.800065994E0,9.802591220E0
1.642638555E0,3.052607179E-2,2.196680009E-1,9.790489197E0,9.793000796E0
1.645157982E0,3.052607179E-2,2.100912035E-1,9.790489197E0,9.792790658E0
1.647677410E0,2.094926499E-2,2.053027898E-1,9.795277596E0,9.797451265E0
1.650196837E0,4.010287672E-2,2.100912035E-1,9.809642792E0,9.811974228E0
1.652716316E0,5.925649032E-2,1.957259923E-1,9.814431190E0,9.816561495E0
1.655235795E0,5.446808785E-2,2.005143911E-1,9.814431190E0,9.816630399E0
1.657755274E0,3.052607179E-2,1.909375787E-1,9.790489197E0,9.792398466E0
1.660274753E0,2.094926499E-2,2.005143911E-1,9.790489197E0,9.792564710E0
1.662794232E0,1.616086066E-2,2.005143911E-1,9.790489197E0,9.792555637E0
1.665313712E0,2.573766746E-2,1.957259923E-1,9.795277596E0,9.797266673E0
1.667833191E0,3.052607179E-2,1.861491799E-1,9.780912399E0,9.782731251E0
1.670352670E0,3.052607179E-2,2.005143911E-1,9.780912399E0,9.783015140E0
1.672872149E0,3.052607179E-2,1.861491799E-1,9.780912399E0,9.782731251E0
1.675391628E0,3.531447425E-2,1.813607812E-1,9.771335602E0,9.773082333E0
1.677911107E0,3.052607179E-2,1.813607812E-1,9.780912399E0,9.782641307E0
1.680430587E0,2.573766746E-2,1.957259923E-1,9.776124001E0,9.778116974E0
1.682950066E0,3.531447425E-2,1.909375787E-1,9.780912399E0,9.782839651E0
1.685469232E0,2.094926499E-2,1.717839688E-1,9.780912399E0,9.782443251E0
1.687988295E0,2.094926499E-2,1.813607812E-1,9.795277596E0,9.796978809E0
1.690507357E0,3.531447425E-2,1.861491799E-1,9.780912399E0,9.782747364E0
1.693026420E0,2.094926499E-2,1.765723825E-1,9.795277596E0,9.796891336E0
1.695545482E0,3.531447425E-2,1.765723825E-1,9.795277596E0,9.796932586E0
1.698064597E0,1.137245819E-2,1.669955701E-1,9.790489197E0,9.791919912E0
1.700583764E0,1.795651275E-3,1.861491799E-1,9.795277596E0,9.797046387E0
1.703102982E0,2.094926499E-2,1.861491799E-1,9.785700798E0,9.787493576E0
1.705622253E0,3.531447425E-2,1.909375787E-1,9.804854393E0,9.806776939E0
1.708141576E0,3.052607179E-2,2.005143911E-1,9.780912399E0,9.783015140E0
1.710660951E0,2.094926499E-2,2.005143911E-1,9.785700798E0,9.787777327E0
1.713180378E0,3.531447425E-2,2.053027898E-1,9.795277596E0,9.797492512E0
1.715699910E0,3.531447425E-2,2.005143911E-1,9.800065994E0,9.802180708E0
1.718219545E0,3.531447425E-2,1.957259923E-1,9.790489197E0,9.792509101E0
1.720739232E0,4.489128292E-2,2.053027898E-1,9.780912399E0,9.783169825E0
1.723258972E0,3.531447425E-2,1.957259923E-1,9.776124001E0,9.778146872E0
1.725778712E0,3.052607179E-2,2.053027898E-1,9.800065994E0,9.802263747E0
1.728298451E0,3.052607179E-2,2.053027898E-1,9.795277596E0,9.797476423E0
1.730818191E0,3.531447425E-2,2.053027898E-1,9.771335602E0,9.773555944E0
1.733337670E0,2.573766746E-2,2.244564146E-1,9.780912399E0,9.783521374E0
1.735856941E0,3.052607179E-2,2.244564146E-1,9.780912399E0,9.783535143E0
1.738376212E0,3.531447425E-2,2.196680009E-1,9.795277596E0,9.797804056E0
1.740895482E0,2.094926499E-2,2.244564146E-1,9.790489197E0,9.793084206E0
1.743414753E0,2.573766746E-2,2.196680009E-1,9.804854393E0,9.807348578E0
1.745934024E0,3.052607179E-2,2.388216257E-1,9.804854393E0,9.807810014E0
1.748453295E0,3.531447425E-2,2.483984232E-1,9.809642792E0,9.812850788E0
1.750972566E0,4.010287672E-2,2.436100245E-1,9.804854393E0,9.807962263E0
1.753491837E0,2.573766746E-2,2.579752207E-1,9.809642792E0,9.813068090E0
1.756011107E0,2.573766746E-2,2.531868219E-1,9.809642792E0,9.812943376E0
1.758530378E0,3.531447425E-2,2.579752207E-1,9.814431190E0,9.817884595E0
1.761049649E0,2.573766746E-2,2.579752207E-1,9.804854393E0,9.808281364E0
1.763568920E0,3.531447425E-2,2.531868219E-1,9.795277596E0,9.798612853E0
1.766088191E0,3.531447425E-2,2.483984232E-1,9.800065994E0,9.803277125E0
1.768607462E0,3.531447425E-2,2.579752207E-1,9.795277596E0,9.798737750E0
1.771126732E0,4.010287672E-2,2.723404467E-1,9.785700798E0,9.789571884E0
1.773645951E0,2.573766746E-2,2.675520480E-1,9.780912399E0,9.784604943E0
1.776165170E0,2.094926499E-2,2.675520480E-1,9.776124001E0,9.779806923E0
1.778684285E0,2.573766746E-2,2.723404467E-1,9.790489197E0,9.794310106E0
1.781203399E0,2.573766746E-2,2.531868219E-1,9.804854393E0,9.808156588E0
1.783722514E0,1.616086066E-2,2.483984232E-1,9.800065994E0,9.803226838E0
1.786241628E0,3.531447425E-2,2.627636492E-1,9.804854393E0,9.808438281E0
1.788760795E0,3.531447425E-2,2.579752207E-1,9.804854393E0,9.808311169E0
1.791280014E0,4.489128292E-2,2.675520480E-1,9.814431190E0,9.818180021E0
1.793799285E0,4.010287672E-2,2.675520480E-1,9.804854393E0,9.808586137E0
1.796318607E0,2.573766746E-2,2.627636492E-1,9.795277596E0,9.798835152E0
1.798838035E0,3.531447425E-2,2.675520480E-1,9.795277596E0,9.798994560E0
1.801357566E0,1.616086066E-2,2.579752207E-1,9.814431190E0,9.817834383E0
1.803877201E0,2.094926499E-2,2.627636492E-1,9.790489197E0,9.794037080E0
1.806396941E0,4.010287672E-2,2.579752207E-1,9.795277596E0,9.798756178E0
1.808916732E0,3.531447425E-2,2.531868219E-1,9.800065994E0,9.803399623E0
1.811436576E0,4.010287672E-2,2.483984232E-1,9.809642792E0,9.812869189E0
1.813956420E0,3.052607179E-2,2.483984232E-1,9.800065994E0,9.803261045E0
1.816476264E0,4.010287672E-2,2.388216257E-1,9.785700798E0,9.788696753E0
1.818996003E0,3.052607179E-2,2.340332121E-1,9.780912399E0,9.783759541E0
1.821515326E0,2.573766746E-2,2.531868219E-1,9.790489197E0,9.793796236E0
1.824034649E0,1.616086066E-2,2.340332121E-1,9.795277596E0,9.798086338E0
1.826553972E0,1.616086066E-2,2.148796022E-1,9.800065994E0,9.802434795E0
1.829073295E0,4.010287672E-2,2.148796022E-1,9.780912399E0,9.783354683E0
1.831592618E0,4.010287672E-2,2.196680009E-1,9.785700798E0,9.788248177E0
1.834111941E0,4.010287672E-2,2.244564146E-1,9.790489197E0,9.793143910E0
1.836631264E0,3.531447425E-2,2.196680009E-1,9.785700798E0,9.788229730E0
1.839150587E0,3.531447425E-2,2.148796022E-1,9.790489197E0,9.792910654E0
1.841669910E0,2.573766746E-2,2.292448133E-1,9.780912399E0,9.783632402E0
1.844189232E0,2.094926499E-2,2.196680009E-1,9.795277596E0,9.797762810E0
1.846708555E0,1.137245819E-2,2.244564146E-1,9.795277596E0,9.797855540E0
1.849227878E0,3.052607179E-2,2.053027898E-1,9.776124001E0,9.778327135E0
1.851747253E0,3.052607179E-2,2.053027898E-1,9.790489197E0,9.792689099E0
1.854266680E0,3.531447425E-2,1.957259923E-1,9.785700798E0,9.787721690E0
1.856786160E0,2.573766746E-2,2.148796022E-1,9.790489197E0,9.792880801E0
1.859305691E0,2.094926499E-2,2.100912035E-1,9.795277596E0,9.797552774E0
1.861825274E0,2.573766746E-2,2.100912035E-1,9.790489197E0,9.792776902E0
1.864344857E0,2.573766746E-2,2.148796022E-1,9.766547203E0,9.768944669E0
1.866864441E0,3.052607179E-2,2.148796022E-1,9.766547203E0,9.768958458E0
1.869384024E0,1.137245819E-2,2.053027898E-1,9.776124001E0,9.778286099E0
1.871903607E0,2.094926499E-2,2.196680009E-1,9.780912399E0,9.783401263E0
1.874423191E0,2.094926499E-2,2.196680009E-1,9.776124001E0,9.778614083E0
1.876942774E0,3.052607179E-2,2.244564146E-1,9.771335602E0,9.773960915E0
1.879462357E0,3.052607179E-2,2.196680009E-1,9.780912399E0,9.783426457E0
1.881981732E0,2.573766746E-2,2.053027898E-1,9.780912399E0,9.783100686E0
1.884500691E0,3.531447425E-2,2.196680009E-1,9.790489197E0,9.793016892E0
1.887019649E0,3.052607179E-2,2.388216257E-1,9.785700798E0,9.788662203E0
1.889538607E0,3.052607179E-2,2.340332121E-1,9.780912399E0,9.783759541E0
1.892057618E0,2.094926499E-2,2.388216257E-1,9.800065994E0,9.802997916E0
1.894576680E0,3.531447425E-2,2.340332121E-1,9.800065994E0,9.802923653E0
1.897095795E0,3.052607179E-2,2.531868219E-1,9.790489197E0,9.793809990E0
1.899614962E0,2.573766746E-2,2.388216257E-1,9.804854393E0,9.807796280E0
1.902134180E0,3.052607179E-2,2.436100245E-1,9.800065994E0,9.803140883E0
1.904653451E0,3.052607179E-2,2.483984232E-1,9.814431190E0,9.817621566E0
1.907172722E0,2.573766746E-2,2.436100245E-1,9.795277596E0,9.798340239E0
1.909691993E0,1.616086066E-2,2.340332121E-1,9.795277596E0,9.798086338E0
1.912211264E0,3.052607179E-2,2.388216257E-1,9.785700798E0,9.788662203E0
1.914730535E0,2.573766746E-2,2.388216257E-1,9.795277596E0,9.798222358E0
1.917249805E0,4.010287672E-2,2.483984232E-1,9.804854393E0,9.808082365E0
1.919768920E0,2.094926499E-2,2.340332121E-1,9.800065994E0,9.802882429E0
1.922287878E0,4.010287672E-2,2.436100245E-1,9.814431190E0,9.817536029E0
1.924806837E0,1.137245819E-2,2.483984232E-1,9.809642792E0,9.812793833E0
1.927325795E0,2.094926499E-2,2.483984232E-1,9.809642792E0,9.812809605E0
1.929844753E0,3.531447425E-2,2.436100245E-1,9.819219589E0,9.822304531E0
1.932363712E0,3.531447425E-2,2.388216257E-1,9.800065994E0,9.803039140E0
1.934882670E0,3.531447425E-2,2.244564146E-1,9.790489197E0,9.793125472E0
1.937401628E0,4.010287672E-2,2.292448133E-1,9.780912399E0,9.783680738E0
1.939920639E0,3.531447425E-2,2.388216257E-1,9.800065994E0,9.803039140E0
1.942439701E0,4.010287672E-2,2.292448133E-1,9.800065994E0,9.802828924E0
1.944958868E0,2.573766746E-2,2.340332121E-1,9.795277596E0,9.798106814E0
1.947478087E0,3.531447425E-2,2.196680009E-1,9.795277596E0,9.797804056E0
1.949997357E0,4.010287672E-2,2.148796022E-1,9.804854393E0,9.807290714E0
1.952516680E0,2.094926499E-2,2.196680009E-1,9.804854393E0,9.807337180E0
1.955036055E0,1.137245819E-2,2.340332121E-1,9.800065994E0,9.802866640E0
1.957555482E0,2.573766746E-2,2.196680009E-1,9.804854393E0,9.807348578E0
1.960074910E0,2.094926499E-2,2.005143911E-1,9.800065994E0,9.802139480E0
1.962594337E0,3.052607179E-2,2.053027898E-1,9.790489197E0,9.792689099E0
1.965113764E0,4.010287672E-2,2.100912035E-1,9.776124001E0,9.778463429E0
1.967633139E0,3.531447425E-2,2.005143911E-1,9.780912399E0,9.783031253E0
1.970152514E0,3.531447425E-2,2.005143911E-1,9.785700798E0,9.787818615E0
1.972671889E0,4.010287672E-2,1.909375787E-1,9.780912399E0,9.782858108E0
1.975191264E0,3.531447425E-2,1.861491799E-1,9.785700798E0,9.787534865E0
1.977710639E0,2.094926499E-2,1.957259923E-1,9.785700798E0,9.787680402E0
1.980230014E0,2.094926499E-2,1.909375787E-1,9.800065994E0,9.801948251E0
1.982749389E0,4.967968538E-2,1.861491799E-1,9.795277596E0,9.797172182E0
1.985268503E0,3.052607179E-2,1.813607812E-1,9.795277596E0,9.797003968E0
1.987787618E0,2.573766746E-2,1.669955701E-1,9.795277596E0,9.796734819E0
1.990306732E0,3.052607179E-2,1.669955701E-1,9.795277596E0,9.796748570E0
1.992825847E0,4.010287672E-2,1.813607812E-1,9.785700798E0,9.787463414E0
1.995345014E0,3.052607179E-2,1.669955701E-1,9.790489197E0,9.791960890E0
1.997864232E0,4.489128292E-2,1.669955701E-1,9.780912399E0,9.782440908E0
2.000383555E0,4.010287672E-2,1.478419602E-1,9.790489197E0,9.791687505E0
2.002902982E0,3.052607179E-2,1.622071713E-1,9.795277596E0,9.796668116E0
2.005422514E0,2.094926499E-2,1.717839688E-1,9.804854393E0,9.806381508E0
2.007942149E0,2.094926499E-2,1.813607812E-1,9.790489197E0,9.792191242E0
2.010461889E0,1.137245819E-2,1.765723825E-1,9.795277596E0,9.796875538E0
2.012981732E0,6.584054790E-3,1.717839688E-1,9.790489197E0,9.791998355E0
2.015501680E0,2.094926499E-2,1.622071713E-1,9.795277596E0,9.796642956E0
2.018021732E0,3.052607179E-2,1.622071713E-1,9.790489197E0,9.791880398E0
2.020541889E0,3.052607179E-2,1.669955701E-1,9.785700798E0,9.787173211E0
2.023062097E0,2.094926499E-2,1.717839688E-1,9.785700798E0,9.787230901E0
2.025582357E0,2.573766746E-2,1.717839688E-1,9.790489197E0,9.792029967E0
2.028102670E0,1.137245819E-2,1.622071713E-1,9.795277596E0,9.796627158E0
2.030622982E0,2.573766746E-2,1.669955701E-1,9.790489197E0,9.791947133E0
2.033142566E0,2.573766746E-2,1.813607812E-1,9.800065994E0,9.801777780E0
2.035661889E0,3.052607179E-2,1.717839688E-1,9.814431190E0,9.815981926E0
2.038181212E0,2.573766746E-2,1.861491799E-1,9.804854393E0,9.806655067E0
2.040700535E0,1.137245819E-2,1.861491799E-1,9.766547203E0,9.768327652E0
2.043219857E0,1.137245819E-2,1.861491799E-1,9.761758804E0,9.763540127E0
2.045739180E0,1.137245819E-2,2.053027898E-1,9.771335602E0,9.773498760E0
2.048258503E0,2.094926499E-2,2.100912035E-1,9.800065994E0,9.802340061E0
2.050777826E0,4.010287672E-2,1.957259923E-1,9.800065994E0,9.802102346E0
2.053297149E0,4.967968538E-2,2.053027898E-1,9.790489197E0,9.792767536E0
2.055816472E0,3.531447425E-2,2.053027898E-1,9.814431190E0,9.816641785E0
2.058335795E0,2.573766746E-2,2.100912035E-1,9.790489197E0,9.792776902E0
2.060855118E0,2.573766746E-2,2.100912035E-1,9.785700798E0,9.787989622E0
2.063374441E0,3.052607179E-2,2.148796022E-1,9.785700798E0,9.788107335E0
2.065893816E0,3.052607179E-2,2.196680009E-1,9.785700798E0,9.788213626E0
2.068413243E0,3.052607179E-2,2.053027898E-1,9.776124001E0,9.778327135E0
2.070932670E0,4.010287672E-2,2.005143911E-1,9.785700798E0,9.787837063E0
2.073452097E0,3.531447425E-2,2.196680009E-1,9.776124001E0,9.778655409E0
2.075971524E0,3.052607179E-2,2.244564146E-1,9.776124001E0,9.778748028E0
2.078490951E0,4.010287672E-2,2.340332121E-1,9.780912399E0,9.783794108E0
2.081010378E0,2.573766746E-2,2.292448133E-1,9.776124001E0,9.778845335E0
2.083529805E0,3.531447425E-2,2.388216257E-1,9.785700798E0,9.788678307E0
2.086049232E0,3.052607179E-2,2.531868219E-1,9.785700798E0,9.789023216E0
2.088568660E0,2.094926499E-2,2.627636492E-1,9.795277596E0,9.798823745E0
2.091088087E0,2.094926499E-2,2.483984232E-1,9.809642792E0,9.812809605E0
2.093607514E0,3.052607179E-2,2.436100245E-1,9.790489197E0,9.793567093E0
2.096126941E0,2.094926499E-2,2.579752207E-1,9.800065994E0,9.803483237E0
2.098646368E0,2.094926499E-2,2.388216257E-1,9.795277596E0,9.798210950E0
2.101165795E0,3.531447425E-2,2.483984232E-1,9.790489197E0,9.793703467E0
2.103685222E0,3.531447425E-2,2.579752207E-1,9.800065994E0,9.803524459E0
2.106204493E0,3.531447425E-2,2.579752207E-1,9.790489197E0,9.793951043E0
2.108723764E0,4.489128292E-2,2.436100245E-1,9.795277596E0,9.798409271E0
2.111243035E0,3.531447425E-2,2.436100245E-1,9.819219589E0,9.822304531E0
2.113762305E0,3.052607179E-2,2.627636492E-1,9.800065994E0,9.803635554E0
2.116281576E0,2.094926499E-2,2.531868219E-1,9.814431190E0,9.817718779E0
2.118800847E0,3.052607179E-2,2.579752207E-1,9.828796387E0,9.832228713E0
2.121320118E0,4.010287672E-2,2.436100245E-1,9.814431190E0,9.817536029E0
2.123839389E0,4.010287672E-2,2.388216257E-1,9.814431190E0,9.817418378E0
2.126358660E0,4.967968538E-2,2.292448133E-1,9.809642792E0,9.812446838E0
2.128877930E0,4.010287672E-2,2.388216257E-1,9.804854393E0,9.807844497E0
2.131397201E0,3.052607179E-2,2.436100245E-1,9.814431190E0,9.817501580E0
2.133916472E0,3.531447425E-2,2.340332121E-1,9.809642792E0,9.812497662E0
2.136435743E0,2.094926499E-2,2.388216257E-1,9.780912399E0,9.783850060E0
2.138955014E0,2.573766746E-2,2.292448133E-1,9.785700798E0,9.788419470E0
2.141474285E0,2.573766746E-2,2.244564146E-1,9.795277596E0,9.797882745E0
2.143993555E0,1.137245819E-2,2.340332121E-1,9.785700798E0,9.788505554E0
2.146512826E0,4.010287672E-2,2.148796022E-1,9.790489197E0,9.792929092E0
2.149032097E0,4.489128292E-2,2.292448133E-1,9.790489197E0,9.793275607E0
2.151551368E0,2.094926499E-2,2.196680009E-1,9.800065994E0,9.802549994E0
2.154070639E0,1.137245819E-2,2.196680009E-1,9.790489197E0,9.792959822E0
2.156589910E0,3.531447425E-2,2.292448133E-1,9.800065994E0,9.802810505E0
2.159109180E0,4.010287672E-2,2.292448133E-1,9.785700798E0,9.788467783E0
2.161628451E0,2.094926499E-2,2.292448133E-1,9.780912399E0,9.783620977E0
2.164147722E0,2.094926499E-2,2.148796022E-1,9.785700798E0,9.788082152E0
2.166667045E0,3.052607179E-2,2.196680009E-1,9.790489197E0,9.793000796E0
2.169186420E0,2.573766746E-2,2.053027898E-1,9.800065994E0,9.802250005E0
2.171705847E0,2.094926499E-2,1.909375787E-1,9.809642792E0,9.811523212E0
2.174225326E0,1.137245819E-2,2.100912035E-1,9.780912399E0,9.783175099E0
2.176744857E0,1.616086066E-2,1.957259923E-1,9.766547203E0,9.768521593E0
2.179264441E0,3.052607179E-2,2.053027898E-1,9.771335602E0,9.773539815E0
2.181784076E0,3.531447425E-2,2.005143911E-1,9.780912399E0,9.783031253E0
2.184303764E0,3.531447425E-2,2.100912035E-1,9.785700798E0,9.788019490E0
2.186823503E0,3.531447425E-2,2.100912035E-1,9.780912399E0,9.783232226E0
2.189343243E0,4.010287672E-2,1.957259923E-1,9.790489197E0,9.792527540E0
2.191862982E0,4.010287672E-2,2.148796022E-1,9.795277596E0,9.797716298E0
2.194382722E0,4.010287672E-2,2.053027898E-1,9.809642792E0,9.811872868E0
2.196901941E0,2.573766746E-2,2.005143911E-1,9.809642792E0,9.811725646E0
2.199421107E0,3.531447425E-2,2.005143911E-1,9.795277596E0,9.797393342E0
2.201940274E0,4.489128292E-2,2.100912035E-1,9.800065994E0,9.802420468E0
2.204459441E0,4.489128292E-2,1.957259923E-1,9.800065994E0,9.802123106E0
2.206978607E0,3.052607179E-2,2.100912035E-1,9.804854393E0,9.807152483E0
2.209497774E0,4.489128292E-2,2.100912035E-1,9.790489197E0,9.792845973E0
2.212016941E0,2.094926499E-2,2.053027898E-1,9.790489197E0,9.792663929E0
2.214536107E0,2.573766746E-2,2.148796022E-1,9.795277596E0,9.797668031E0
2.217055274E0,2.573766746E-2,2.148796022E-1,9.795277596E0,9.797668031E0
2.219574441E0,2.573766746E-2,2.292448133E-1,9.795277596E0,9.797993610E0
2.222093607E0,3.531447425E-2,2.244564146E-1,9.804854393E0,9.807486807E0
2.224612774E0,4.010287672E-2,2.292448133E-1,9.790489197E0,9.793254829E0
2.227131941E0,3.531447425E-2,2.244564146E-1,9.780912399E0,9.783551255E0
2.229651107E0,4.010287672E-2,2.436100245E-1,9.804854393E0,9.807962263E0
2.232170326E0,2.573766746E-2,2.244564146E-1,9.804854393E0,9.807456999E0
2.234689545E0,4.010287672E-2,2.340332121E-1,9.804854393E0,9.807729067E0
2.237208816E0,2.573766746E-2,2.292448133E-1,9.800065994E0,9.802780682E0
2.239728139E0,3.531447425E-2,2.436100245E-1,9.780912399E0,9.784009419E0
2.242247462E0,3.052607179E-2,2.436100245E-1,9.780912399E0,9.783993308E0
2.244766837E0,2.573766746E-2,2.531868219E-1,9.780912399E0,9.784222675E0
2.247286264E0,3.531447425E-2,2.436100245E-1,9.776124001E0,9.779222537E0
2.249805743E0,3.531447425E-2,2.531868219E-1,9.800065994E0,9.803399623E0
2.252325274E0,2.573766746E-2,2.388216257E-1,9.804854393E0,9.807796280E0
2.254844805E0,4.010287672E-2,2.340332121E-1,9.790489197E0,9.793368088E0
2.257364337E0,3.531447425E-2,2.388216257E-1,9.790489197E0,9.793465250E0
2.259883868E0,3.052607179E-2,2.483984232E-1,9.780912399E0,9.784113704E0
2.262403035E0,2.573766746E-2,2.436100245E-1,9.800065994E0,9.803127142E0
2.264922201E0,2.094926499E-2,2.388216257E-1,9.790489197E0,9.793423985E0
2.267441368E0,3.531447425E-2,2.388216257E-1,9.785700798E0,9.788678307E0
2.269960535E0,3.052607179E-2,2.388216257E-1,9.776124001E0,9.779088305E0
2.272479701E0,4.967968538E-2,2.436100245E-1,9.790489197E0,9.793645523E0
2.274998868E0,4.010287672E-2,2.483984232E-1,9.790489197E0,9.793721904E0
2.277518035E0,4.010287672E-2,2.388216257E-1,9.780912399E0,9.783909820E0
2.280037201E0,2.573766746E-2,2.292448133E-1,9.771335602E0,9.774058269E0
2.282556368E0,4.010287672E-2,2.292448133E-1,9.766547203E0,9.769319613E0
2.285075535E0,3.531447425E-2,2.531868219E-1,9.771335602E0,9.774679029E0
2.287594701E0,3.052607179E-2,2.531868219E-1,9.785700798E0,9.789023216E0
2.290113920E0,3.052607179E-2,2.148796022E-1,9.785700798E0,9.788107335E0
2.292633191E0,3.052607179E-2,2.053027898E-1,9.800065994E0,9.802263747E0
2.295152514E0,3.052607179E-2,2.196680009E-1,9.804854393E0,9.807362313E0
2.297671837E0,4.489128292E-2,1.957259923E-1,9.795277596E0,9.797335713E0
2.300191160E0,5.446808785E-2,1.957259923E-1,9.800065994E0,9.802171643E0
2.302710482E0,3.052607179E-2,2.196680009E-1,9.790489197E0,9.793000796E0
2.305229805E0,2.094926499E-2,2.005143911E-1,9.795277596E0,9.797352095E0
2.307749128E0,2.094926499E-2,1.861491799E-1,9.785700798E0,9.787493576E0
2.310267982E0,3.052607179E-2,1.909375787E-1,9.785700798E0,9.787611001E0
2.312786837E0,3.052607179E-2,1.909375787E-1,9.790489197E0,9.792398466E0
2.315305743E0,3.052607179E-2,1.813607812E-1,9.795277596E0,9.797003968E0
2.317824701E0,2.573766746E-2,1.813607812E-1,9.785700798E0,9.787415096E0
2.320343712E0,3.052607179E-2,1.765723825E-1,9.800065994E0,9.801704094E0
2.322862774E0,2.573766746E-2,1.765723825E-1,9.795277596E0,9.796902746E0
2.325381889E0,2.573766746E-2,1.717839688E-1,9.804854393E0,9.806392906E0
2.327901055E0,3.531447425E-2,1.574187577E-1,9.800065994E0,9.801393843E0
2.330420274E0,4.489128292E-2,1.478419602E-1,9.785700798E0,9.786920485E0
2.332939545E0,4.489128292E-2,1.478419602E-1,9.800065994E0,9.801283894E0
2.335458920E0,3.052607179E-2,1.622071713E-1,9.814431190E0,9.815818998E0
2.337978399E0,4.967968538E-2,1.478419602E-1,9.809642792E0,9.810882581E0
2.340497982E0,4.489128292E-2,1.574187577E-1,9.795277596E0,9.796645297E0
2.343017618E0,4.010287672E-2,1.526303589E-1,9.795277596E0,9.796548751E0
2.345537305E0,4.010287672E-2,1.526303589E-1,9.814431190E0,9.815699866E0
2.348057045E0,3.052607179E-2,1.669955701E-1,9.795277596E0,9.796748570E0
2.350576837E0,3.052607179E-2,1.622071713E-1,9.785700798E0,9.787092679E0
2.353096628E0,3.531447425E-2,1.286883354E-1,9.800065994E0,9.800974507E0
2.355616420E0,3.052607179E-2,1.478419602E-1,9.795277596E0,9.796440795E0
2.358136212E0,3.052607179E-2,1.574187577E-1,9.780912399E0,9.782226734E0
2.360655378E0,1.137245819E-2,1.478419602E-1,9.766547203E0,9.767672745E0
2.363174441E0,1.616086066E-2,1.574187577E-1,9.785700798E0,9.786980226E0
2.365693503E0,2.094926499E-2,1.574187577E-1,9.795277596E0,9.796564842E0
2.368212618E0,3.052607179E-2,1.717839688E-1,9.776124001E0,9.777680811E0
2.370731785E0,2.094926499E-2,1.574187577E-1,9.771335602E0,9.772626002E0
2.373251003E0,3.052607179E-2,1.478419602E-1,9.766547203E0,9.767713824E0
2.375770274E0,4.010287672E-2,1.717839688E-1,9.761758804E0,9.763352545E0
2.378289597E0,5.446808785E-2,1.813607812E-1,9.766547203E0,9.768382813E0
2.380808972E0,2.573766746E-2,1.813607812E-1,9.761758804E0,9.763477306E0
2.383328399E0,2.573766746E-2,1.957259923E-1,9.761758804E0,9.763754710E0
2.385847878E0,2.094926499E-2,1.813607812E-1,9.766547203E0,9.768253420E0
2.388367410E0,1.137245819E-2,1.813607812E-1,9.776124001E0,9.777812718E0
2.390886993E0,2.573766746E-2,1.861491799E-1,9.780912399E0,9.782717481E0
2.393406628E0,3.052607179E-2,1.957259923E-1,9.785700798E0,9.787705585E0
2.395926316E0,2.094926499E-2,2.005143911E-1,9.776124001E0,9.778202563E0
2.398446055E0,2.094926499E-2,2.244564146E-1,9.771335602E0,9.773935696E0
2.400965847E0,2.094926499E-2,2.244564146E-1,9.780912399E0,9.783509949E0
2.403485639E0,1.616086066E-2,2.244564146E-1,9.776124001E0,9.778713736E0
2.406005430E0,1.616086066E-2,2.292448133E-1,9.776124001E0,9.778824819E0
2.408524962E0,2.573766746E-2,2.244564146E-1,9.800065994E0,9.802669871E0
2.411044180E0,3.052607179E-2,2.579752207E-1,9.780912399E0,9.784361523E0
2.413563399E0,4.010287672E-2,2.531868219E-1,9.785700798E0,9.789057764E0
2.416082618E0,2.573766746E-2,2.483984232E-1,9.814431190E0,9.817607845E0
2.418601837E0,2.573766746E-2,2.627636492E-1,9.795277596E0,9.798835152E0
2.421121055E0,2.573766746E-2,2.627636492E-1,9.795277596E0,9.798835152E0
2.423640274E0,2.094926499E-2,2.627636492E-1,9.804854393E0,9.808397080E0
2.426159493E0,2.573766746E-2,2.723404467E-1,9.819219589E0,9.823029323E0
2.428678712E0,4.010287672E-2,2.771288455E-1,9.800065994E0,9.804065592E0
2.431197930E0,3.531447425E-2,2.723404467E-1,9.800065994E0,9.803912990E0
2.433717097E0,3.052607179E-2,2.819172442E-1,9.800065994E0,9.804167617E0
2.436236264E0,2.573766746E-2,2.962824702E-1,9.795277596E0,9.799791268E0
2.438755430E0,4.010287672E-2,2.914940715E-1,9.804854393E0,9.809268408E0
2.441274597E0,5.446808785E-2,2.819172442E-1,9.800065994E0,9.804271396E0
2.443793764E0,4.489128292E-2,2.819172442E-1,9.780912399E0,9.785077410E0
2.446312982E0,2.573766746E-2,2.914940715E-1,9.795277596E0,9.799647667E0
2.448832253E0,3.531447425E-2,2.867056429E-1,9.804854393E0,9.809108874E0
2.451351576E0,2.573766746E-2,2.771288455E-1,9.800065994E0,9.804017356E0
2.453870951E0,3.052607179E-2,2.771288455E-1,9.780912399E0,9.784885263E0
2.456390378E0,4.967968538E-2,2.819172442E-1,9.780912399E0,9.785100550E0
2.458909910E0,4.010287672E-2,2.819172442E-1,9.785700798E0,9.789842986E0
2.461429545E0,4.489128292E-2,2.867056429E-1,9.785700798E0,9.790002833E0
2.463949285E0,3.531447425E-2,2.867056429E-1,9.800065994E0,9.804322553E0
2.466469076E0,3.052607179E-2,2.771288455E-1,9.809642792E0,9.813604024E0
2.468988920E0,2.094926499E-2,2.867056429E-1,9.804854393E0,9.809067676E0
2.471508764E0,2.094926499E-2,2.723404467E-1,9.795277596E0,9.799085231E0
2.474028607E0,3.052607179E-2,2.723404467E-1,9.804854393E0,9.808683440E0
2.476548451E0,2.094926499E-2,2.723404467E-1,9.800065994E0,9.803871770E0
2.479067618E0,3.052607179E-2,2.723404467E-1,9.785700798E0,9.789537337E0
2.481586785E0,2.094926499E-2,2.867056429E-1,9.800065994E0,9.804281335E0
2.484105951E0,3.052607179E-2,2.531868219E-1,9.804854393E0,9.808170323E0
2.486625118E0,4.010287672E-2,2.531868219E-1,9.790489197E0,9.793844522E0
2.489144285E0,3.052607179E-2,2.531868219E-1,9.790489197E0,9.793809990E0
2.491663451E0,5.446808785E-2,2.579752207E-1,9.800065994E0,9.803612165E0
2.494182618E0,4.010287672E-2,2.483984232E-1,9.771335602E0,9.774574643E0
2.496701785E0,5.446808785E-2,2.340332121E-1,9.785700798E0,9.788650491E0
2.499220951E0,5.446808785E-2,2.244564146E-1,9.795277596E0,9.798000338E0
2.501740170E0,4.489128292E-2,2.292448133E-1,9.780912399E0,9.783701537E0
2.504259441E0,2.573766746E-2,2.148796022E-1,9.776124001E0,9.778519118E0
2.506778764E0,2.094926499E-2,2.148796022E-1,9.780912399E0,9.783294919E0
2.509298139E0,1.616086066E-2,2.196680009E-1,9.795277596E0,9.797753741E0
2.511817566E0,2.094926499E-2,2.244564146E-1,9.785700798E0,9.788297077E0
2.514336993E0,3.052607179E-2,2.100912035E-1,9.790489197E0,9.792790658E0
2.516856420E0,3.531447425E-2,2.100912035E-1,9.795277596E0,9.797594021E0
2.519375847E0,3.531447425E-2,2.148796022E-1,9.800065994E0,9.802485085E0
2.521895326E0,3.531447425E-2,2.148796022E-1,9.804854393E0,9.807272303E0
2.524414857E0,3.531447425E-2,1.957259923E-1,9.800065994E0,9.802083925E0
2.526934441E0,2.573766746E-2,1.957259923E-1,9.795277596E0,9.797266673E0
2.529454076E0,2.094926499E-2,2.053027898E-1,9.790489197E0,9.792663929E0
2.531973764E0,2.573766746E-2,2.053027898E-1,9.790489197E0,9.792675343E0
2.534493503E0,1.137245819E-2,1.861491799E-1,9.785700798E0,9.787477763E0
2.537013347E0,3.052607179E-2,1.765723825E-1,9.804854393E0,9.806491693E0
2.539533295E0,3.052607179E-2,1.861491799E-1,9.790489197E0,9.792306269E0
2.542053347E0,3.531447425E-2,1.909375787E-1,9.795277596E0,9.797202021E0
2.544573451E0,3.052607179E-2,2.053027898E-1,9.776124001E0,9.778327135E0
2.547093607E0,3.531447425E-2,2.053027898E-1,9.790489197E0,9.792705196E0
2.549613764E0,2.094926499E-2,2.148796022E-1,9.771335602E0,9.773720456E0
2.552133920E0,3.052607179E-2,2.100912035E-1,9.771335602E0,9.773641573E0
2.554653712E0,3.052607179E-2,2.100912035E-1,9.780912399E0,9.783216113E0
2.557173035E0,2.573766746E-2,2.005143911E-1,9.790489197E0,9.792576125E0
2.559692357E0,3.531447425E-2,2.005143911E-1,9.800065994E0,9.802180708E0
2.562211680E0,3.531447425E-2,2.053027898E-1,9.804854393E0,9.807067146E0
2.564731003E0,3.531447425E-2,2.100912035E-1,9.785700798E0,9.788019490E0
2.567250326E0,3.052607179E-2,2.148796022E-1,9.776124001E0,9.778532894E0
2.569769701E0,2.573766746E-2,2.292448133E-1,9.780912399E0,9.783632402E0
2.572289128E0,2.094926499E-2,2.196680009E-1,9.795277596E0,9.797762810E0
2.574808607E0,3.531447425E-2,2.244564146E-1,9.795277596E0,9.797912582E0
2.577328139E0,3.531447425E-2,2.388216257E-1,9.790489197E0,9.793465250E0
2.579847722E0,2.094926499E-2,2.292448133E-1,9.800065994E0,9.802769280E0
2.582367357E0,4.010287672E-2,2.100912035E-1,9.795277596E0,9.797612450E0
2.584887045E0,4.489128292E-2,2.148796022E-1,9.785700798E0,9.788162676E0
2.587406785E0,3.531447425E-2,2.053027898E-1,9.804854393E0,9.807067146E0
2.589926524E0,4.489128292E-2,2.100912035E-1,9.809642792E0,9.811994968E0
2.592446264E0,3.531447425E-2,2.148796022E-1,9.790489197E0,9.792910654E0
2.594966003E0,3.052607179E-2,2.053027898E-1,9.790489197E0,9.792689099E0
2.597485743E0,2.573766746E-2,1.957259923E-1,9.809642792E0,9.811628957E0
2.600005222E0,2.573766746E-2,1.957259923E-1,9.800065994E0,9.802054100E0
2.602524441E0,2.094926499E-2,2.053027898E-1,9.780912399E0,9.783089260E0
2.605043660E0,3.531447425E-2,2.005143911E-1,9.780912399E0,9.783031253E0
2.607562878E0,4.489128292E-2,2.005143911E-1,9.795277596E0,9.797432542E0
2.610082097E0,3.531447425E-2,2.005143911E-1,9.771335602E0,9.773456532E0
2.612601316E0,4.010287672E-2,1.957259923E-1,9.756970406E0,9.759015750E0
2.615120535E0,2.094926499E-2,2.053027898E-1,9.771335602E0,9.773514596E0
2.617639805E0,3.052607179E-2,1.813607812E-1,9.776124001E0,9.777853755E0
2.620159128E0,4.489128292E-2,2.053027898E-1,9.780912399E0,9.783169825E0
2.622678503E0,3.052607179E-2,2.196680009E-1,9.800065994E0,9.802575139E0
2.625197930E0,2.573766746E-2,2.100912035E-1,9.800065994E0,9.802351464E0
2.627717410E0,1.137245819E-2,2.005143911E-1,9.814431190E0,9.816485876E0
2.630236941E0,1.137245819E-2,1.813607812E-1,9.828796387E0,9.830476055E0
2.632756524E0,2.094926499E-2,1.813607812E-1,9.814431190E0,9.816129084E0
2.635276160E0,2.094926499E-2,1.717839688E-1,9.795277596E0,9.796806203E0
2.637795847E0,3.052607179E-2,1.526303589E-1,9.814431190E0,9.815665411E0
2.640315587E0,2.094926499E-2,1.622071713E-1,9.804854393E0,9.806218420E0
2.642835378E0,3.052607179E-2,1.478419602E-1,9.814431190E0,9.815592121E0
2.645355222E0,2.094926499E-2,1.334767491E-1,9.809642792E0,9.810573205E0
2.647875066E0,6.584054790E-3,1.238999367E-1,9.785700798E0,9.786487350E0
2.650394910E0,2.573766746E-2,1.143231317E-1,9.776124001E0,9.776826309E0
2.652914701E0,2.094926499E-2,1.191115379E-1,9.785700798E0,9.786448106E0
2.655433816E0,2.573766746E-2,1.286883354E-1,9.800065994E0,9.800944679E0
2.657952930E0,3.052607179E-2,1.286883354E-1,9.804854393E0,9.805746387E0
2.660472045E0,1.137245819E-2,1.286883354E-1,9.790489197E0,9.791341519E0
2.662991160E0,1.616086066E-2,1.382651478E-1,9.780912399E0,9.781902974E0
2.665510274E0,2.573766746E-2,1.526303589E-1,9.785700798E0,9.786924878E0
2.668029389E0,3.052607179E-2,1.478419602E-1,9.785700798E0,9.786865136E0
2.670548503E0,1.137245819E-2,1.382651478E-1,9.780912399E0,9.781896235E0
2.673067618E0,1.137245819E-2,1.478419602E-1,9.785700798E0,9.786824137E0
2.675586785E0,2.573766746E-2,1.430535465E-1,9.780912399E0,9.781992338E0
2.678106003E0,3.531447425E-2,1.430535465E-1,9.785700798E0,9.786810080E0
2.680625326E0,3.531447425E-2,1.526303589E-1,9.780912399E0,9.782166963E0
2.683144753E0,1.616086066E-2,1.478419602E-1,9.785700798E0,9.786830873E0
2.685664232E0,1.616086066E-2,1.430535465E-1,9.795277596E0,9.796335471E0
2.688183764E0,3.531447425E-2,1.430535465E-1,9.800065994E0,9.801173650E0
2.690703347E0,3.531447425E-2,1.430535465E-1,9.776124001E0,9.777234369E0
2.693222982E0,2.573766746E-2,1.622071713E-1,9.780912399E0,9.782291192E0
2.695742670E0,1.616086066E-2,1.622071713E-1,9.771335602E0,9.772695216E0
2.698262410E0,2.573766746E-2,1.574187577E-1,9.761758804E0,9.763061920E0
2.700782149E0,2.573766746E-2,1.669955701E-1,9.795277596E0,9.796734819E0
2.703301889E0,2.573766746E-2,1.717839688E-1,9.780912399E0,9.782454678E0
2.705821628E0,2.573766746E-2,1.622071713E-1,9.780912399E0,9.782291192E0
2.708341368E0,2.094926499E-2,1.765723825E-1,9.780912399E0,9.782528510E0
2.710861107E0,3.052607179E-2,1.717839688E-1,9.785700798E0,9.787256085E0
2.713380847E0,1.616086066E-2,1.717839688E-1,9.795277596E0,9.796797134E0
2.715900587E0,1.616086066E-2,2.005143911E-1,9.800065994E0,9.802130416E0
2.718420326E0,2.573766746E-2,2.053027898E-1,9.790489197E0,9.792675343E0
2.720940066E0,2.094926499E-2,2.053027898E-1,9.795277596E0,9.797451265E0
2.723459805E0,2.573766746E-2,2.148796022E-1,9.785700798E0,9.788093572E0
2.725979493E0,2.094926499E-2,2.148796022E-1,9.795277596E0,9.797656622E0
2.728499180E0,2.094926499E-2,2.148796022E-1,9.800065994E0,9.802443859E0
2.731018868E0,2.573766746E-2,2.244564146E-1,9.804854393E0,9.807456999E0
2.733538555E0,2.094926499E-2,2.340332121E-1,9.795277596E0,9.798095406E0
2.736058243E0,3.531447425E-2,2.292448133E-1,9.809642792E0,9.812384623E0
2.738577930E0,3.052607179E-2,2.148796022E-1,9.800065994E0,9.802469004E0
2.741097618E0,2.094926499E-2,2.196680009E-1,9.790489197E0,9.792975626E0
2.743617305E0,3.052607179E-2,2.388216257E-1,9.814431190E0,9.817383929E0
2.746136993E0,3.531447425E-2,2.292448133E-1,9.824007988E0,9.826745812E0
2.748656680E0,4.489128292E-2,2.436100245E-1,9.795277596E0,9.798409271E0
2.751176368E0,3.052607179E-2,2.483984232E-1,9.804854393E0,9.808047884E0
2.753696055E0,4.010287672E-2,2.436100245E-1,9.785700798E0,9.788814749E0
2.756215743E0,3.531447425E-2,2.483984232E-1,9.780912399E0,9.784129816E0
2.758735430E0,3.052607179E-2,2.292448133E-1,9.800065994E0,9.802794424E0
2.761255118E0,2.094926499E-2,2.388216257E-1,9.804854393E0,9.807784883E0
2.763774805E0,2.573766746E-2,2.340332121E-1,9.809642792E0,9.812467869E0
2.766294232E0,3.052607179E-2,2.340332121E-1,9.809642792E0,9.812481597E0
2.768813399E0,4.967968538E-2,2.388216257E-1,9.804854393E0,9.807888331E0
2.771332566E0,3.531447425E-2,2.436100245E-1,9.790489197E0,9.793583188E0
2.773851732E0,3.531447425E-2,2.579752207E-1,9.785700798E0,9.789164338E0
2.776370899E0,4.010287672E-2,2.483984232E-1,9.780912399E0,9.784148271E0
2.778890066E0,4.010287672E-2,2.340332121E-1,9.790489197E0,9.793368088E0
2.781409232E0,3.531447425E-2,2.340332121E-1,9.776124001E0,9.778988656E0
2.783928399E0,1.616086066E-2,2.244564146E-1,9.795277596E0,9.797862268E0
2.786447566E0,1.616086066E-2,2.388216257E-1,9.776124001E0,9.779054014E0
2.788966732E0,4.010287672E-2,2.244564146E-1,9.785700798E0,9.788356810E0
2.791485899E0,3.531447425E-2,2.100912035E-1,9.804854393E0,9.807168556E0
2.794005066E0,2.094926499E-2,1.909375787E-1,9.804854393E0,9.806735731E0
2.796524232E0,2.573766746E-2,1.861491799E-1,9.790489197E0,9.792292513E0
2.799043451E0,3.052607179E-2,2.005143911E-1,9.795277596E0,9.797377253E0
2.801562722E0,3.052607179E-2,1.861491799E-1,9.795277596E0,9.797093780E0
2.804082045E0,4.010287672E-2,1.861491799E-1,9.780912399E0,9.782765822E0
2.806601420E0,2.094926499E-2,1.957259923E-1,9.780912399E0,9.782892972E0
2.809120847E0,3.052607179E-2,1.861491799E-1,9.795277596E0,9.797093780E0
2.811640326E0,1.616086066E-2,1.861491799E-1,9.790489197E0,9.792272025E0
2.814159857E0,3.531447425E-2,1.909375787E-1,9.780912399E0,9.782839651E0
2.816679441E0,2.094926499E-2,1.813607812E-1,9.795277596E0,9.796978809E0
2.819199076E0,2.094926499E-2,1.669955701E-1,9.800065994E0,9.801511102E0
2.821718764E0,2.573766746E-2,1.717839688E-1,9.795277596E0,9.796817613E0
2.824238451E0,3.052607179E-2,1.622071713E-1,9.800065994E0,9.801455836E0
2.826758139E0,3.531447425E-2,1.717839688E-1,9.795277596E0,9.796847453E0
2.829277826E0,4.010287672E-2,1.765723825E-1,9.790489197E0,9.792163436E0
2.831797462E0,4.967968538E-2,1.765723825E-1,9.785700798E0,9.787419782E0
2.834316732E0,5.446808785E-2,1.717839688E-1,9.795277596E0,9.796935219E0
2.836836003E0,4.010287672E-2,1.574187577E-1,9.776124001E0,9.777473568E0
2.839355274E0,3.052607179E-2,1.574187577E-1,9.790489197E0,9.791802246E0
2.841874545E0,3.531447425E-2,1.526303589E-1,9.790489197E0,9.791742534E0
2.844393816E0,3.052607179E-2,1.574187577E-1,9.795277596E0,9.796590003E0
2.846913087E0,2.094926499E-2,1.765723825E-1,9.800065994E0,9.801678946E0
2.849432357E0,3.531447425E-2,1.669955701E-1,9.790489197E0,9.791976989E0
2.851951628E0,2.094926499E-2,1.574187577E-1,9.776124001E0,9.777413769E0
2.854470899E0,1.137245819E-2,1.765723825E-1,9.776124001E0,9.777725074E0
2.856990170E0,2.094926499E-2,1.765723825E-1,9.785700798E0,9.787316118E0
2.859509441E0,2.094926499E-2,1.909375787E-1,9.780912399E0,9.782798342E0
2.862028712E0,2.573766746E-2,1.909375787E-1,9.785700798E0,9.787597238E0
2.864547982E0,3.052607179E-2,1.909375787E-1,9.790489197E0,9.792398466E0
2.867067253E0,2.573766746E-2,1.765723825E-1,9.795277596E0,9.796902746E0
2.869586524E0,2.573766746E-2,1.765723825E-1,9.790489197E0,9.792115142E0
2.872105795E0,3.531447425E-2,1.813607812E-1,9.795277596E0,9.797020058E0
2.874625066E0,3.052607179E-2,2.005143911E-1,9.790489197E0,9.792589881E0
2.877144337E0,3.052607179E-2,1.957259923E-1,9.780912399E0,9.782918167E0
2.879663607E0,3.531447425E-2,2.005143911E-1,9.790489197E0,9.792605978E0
2.882182878E0,2.573766746E-2,2.053027898E-1,9.785700798E0,9.787888014E0
2.884702149E0,1.616086066E-2,2.100912035E-1,9.780912399E0,9.783181837E0
2.887221420E0,3.052607179E-2,2.148796022E-1,9.795277596E0,9.797681780E0
2.889740691E0,3.531447425E-2,2.148796022E-1,9.790489197E0,9.792910654E0
2.892259962E0,4.967968538E-2,2.196680009E-1,9.800065994E0,9.802653498E0
2.894779232E0,4.010287672E-2,2.244564146E-1,9.809642792E0,9.812292323E0
2.897298503E0,2.094926499E-2,2.100912035E-1,9.800065994E0,9.802340061E0
2.899817774E0,1.616086066E-2,2.100912035E-1,9.785700798E0,9.787969125E0
2.902336941E0,4.010287672E-2,2.196680009E-1,9.795277596E0,9.797822485E0
2.904856107E0,3.052607179E-2,2.388216257E-1,9.780912399E0,9.783875253E0
2.907375274E0,2.573766746E-2,2.292448133E-1,9.800065994E0,9.802780682E0
2.909894441E0,2.094926499E-2,2.388216257E-1,9.785700798E0,9.788637022E0
2.912413607E0,4.010287672E-2,2.244564146E-1,9.780912399E0,9.783569711E0
2.914932774E0,3.531447425E-2,2.436100245E-1,9.800065994E0,9.803156963E0
2.917451941E0,3.052607179E-2,2.340332121E-1,9.804854393E0,9.807694584E0
2.919971107E0,3.052607179E-2,2.148796022E-1,9.804854393E0,9.807256230E0
2.922490274E0,4.010287672E-2,2.244564146E-1,9.790489197E0,9.793143910E0
2.925009493E0,3.052607179E-2,2.196680009E-1,9.795277596E0,9.797787967E0
2.927528764E0,2.573766746E-2,2.196680009E-1,9.790489197E0,9.792987040E0
2.930048035E0,1.616086066E-2,2.148796022E-1,9.780912399E0,9.783285838E0
2.932567305E0,2.094926499E-2,2.196680009E-1,9.790489197E0,9.792975626E0
2.935086576E0,1.137245819E-2,2.196680009E-1,9.780912399E0,9.783385443E0
2.937605795E0,2.094926499E-2,2.292448133E-1,9.771335602E0,9.774046833E0
2.940124857E0,1.616086066E-2,2.244564146E-1,9.795277596E0,9.797862268E0
2.942643920E0,2.573766746E-2,2.100912035E-1,9.790489197E0,9.792776902E0
2.945162982E0,4.967968538E-2,2.196680009E-1,9.790489197E0,9.793079230E0
2.947682045E0,4.010287672E-2,2.148796022E-1,9.780912399E0,9.783354683E0
2.950201107E0,3.052607179E-2,2.100912035E-1,9.824007988E0,9.826301598E0
2.952720170E0,2.573766746E-2,2.148796022E-1,9.824007988E0,9.826391434E0
2.955239232E0,3.531447425E-2,2.196680009E-1,9.814431190E0,9.816952721E0
2.957758295E0,4.010287672E-2,2.100912035E-1,9.795277596E0,9.797612450E0
2.960277357E0,2.573766746E-2,2.053027898E-1,9.819219589E0,9.821399340E0
2.962796420E0,3.052607179E-2,2.005143911E-1,9.814431190E0,9.816526751E0
2.965315482E0,4.010287672E-2,2.005143911E-1,9.790489197E0,9.792624417E0
2.967834545E0,4.489128292E-2,2.148796022E-1,9.790489197E0,9.792949871E0
2.970353660E0,3.531447425E-2,2.100912035E-1,9.795277596E0,9.797594021E0
2.972872826E0,3.531447425E-2,2.053027898E-1,9.780912399E0,9.783130568E0
2.975392045E0,2.094926499E-2,2.005143911E-1,9.780912399E0,9.782989945E0
2.977911368E0,3.531447425E-2,2.005143911E-1,9.795277596E0,9.797393342E0
2.980430795E0,2.573766746E-2,1.909375787E-1,9.771335602E0,9.773234829E0
2.982950326E0,2.573766746E-2,1.909375787E-1,9.790489197E0,9.792384709E0
2.985469962E0,2.094926499E-2,2.005143911E-1,9.776124001E0,9.778202563E0
2.987989701E0,1.137245819E-2,1.909375787E-1,9.785700798E0,9.787570005E0
2.990509545E0,1.616086066E-2,1.861491799E-1,9.800065994E0,9.801847080E0
2.993029441E0,2.094926499E-2,1.813607812E-1,9.800065994E0,9.801766376E0
2.995549389E0,3.531447425E-2,1.861491799E-1,9.809642792E0,9.811472383E0
2.998069337E0,2.094926499E-2,1.909375787E-1,9.795277596E0,9.797160773E0
3.000589076E0,2.094926499E-2,2.053027898E-1,9.800065994E0,9.802238601E0
3.003108139E0,2.094926499E-2,2.005143911E-1,9.780912399E0,9.782989945E0
3.005627149E0,2.573766746E-2,1.957259923E-1,9.785700798E0,9.787691822E0
3.008146160E0,3.531447425E-2,1.861491799E-1,9.804854393E0,9.806684878E0
3.010665170E0,4.489128292E-2,1.909375787E-1,9.800065994E0,9.802028661E0
3.013184180E0,4.489128292E-2,2.005143911E-1,9.790489197E0,9.792645197E0
3.015703243E0,4.010287672E-2,1.957259923E-1,9.800065994E0,9.802102346E0
3.018222357E0,4.010287672E-2,2.053027898E-1,9.814431190E0,9.816660179E0
3.020741576E0,3.052607179E-2,2.100912035E-1,9.800065994E0,9.802365207E0
3.023260899E0,4.489128292E-2,2.053027898E-1,9.795277596E0,9.797531711E0
3.025780326E0,3.531447425E-2,2.100912035E-1,9.795277596E0,9.797594021E0
3.028299857E0,2.573766746E-2,2.053027898E-1,9.795277596E0,9.797462673E0
3.030819441E0,1.137245819E-2,2.053027898E-1,9.790489197E0,9.792648124E0
3.033339076E0,1.616086066E-2,2.100912035E-1,9.800065994E0,9.802330997E0
3.035858764E0,3.052607179E-2,2.196680009E-1,9.795277596E0,9.797787967E0
3.038378503E0,2.573766746E-2,2.005143911E-1,9.804854393E0,9.806938264E0
3.040898243E0,3.531447425E-2,2.005143911E-1,9.785700798E0,9.787818615E0
3.043418035E0,4.010287672E-2,2.100912035E-1,9.790489197E0,9.792825193E0
3.045937826E0,1.616086066E-2,1.813607812E-1,9.804854393E0,9.806544885E0
3.048457618E0,2.573766746E-2,2.053027898E-1,9.800065994E0,9.802250005E0
3.050977410E0,3.052607179E-2,2.196680009E-1,9.804854393E0,9.807362313E0
3.053497201E0,3.531447425E-2,2.196680009E-1,9.800065994E0,9.802591220E0
3.056016628E0,4.010287672E-2,2.244564146E-1,9.790489197E0,9.793143910E0
3.058536003E0,4.010287672E-2,2.292448133E-1,9.776124001E0,9.778893695E0
3.061055378E0,4.010287672E-2,2.244564146E-1,9.795277596E0,9.797931011E0
3.063574753E0,3.052607179E-2,2.148796022E-1,9.780912399E0,9.783320114E0
3.066094128E0,3.531447425E-2,2.005143911E-1,9.776124001E0,9.778243892E0
3.068613503E0,2.573766746E-2,2.196680009E-1,9.766547203E0,9.769051168E0
3.071132878E0,2.573766746E-2,2.292448133E-1,9.776124001E0,9.778845335E0
3.073652253E0,4.010287672E-2,2.148796022E-1,9.790489197E0,9.792929092E0
3.076171628E0,4.010287672E-2,2.148796022E-1,9.776124001E0,9.778567480E0
3.078691003E0,3.531447425E-2,2.244564146E-1,9.785700798E0,9.788338363E0
3.081210378E0,3.531447425E-2,2.148796022E-1,9.785700798E0,9.788123439E0
3.083729753E0,5.446808785E-2,2.100912035E-1,9.795277596E0,9.797681780E0
3.086249180E0,4.010287672E-2,2.196680009E-1,9.776124001E0,9.778673875E0
3.088768660E0,2.573766746E-2,2.005143911E-1,9.780912399E0,9.783001370E0
3.091288191E0,2.094926499E-2,2.005143911E-1,9.790489197E0,9.792564710E0
3.093807774E0,3.531447425E-2,2.053027898E-1,9.795277596E0,9.797492512E0
3.096327357E0,3.052607179E-2,2.005143911E-1,9.785700798E0,9.787802510E0
3.098846941E0,2.094926499E-2,2.053027898E-1,9.804854393E0,9.807025939E0
3.101366524E0,4.489128292E-2,2.148796022E-1,9.809642792E0,9.812098663E0
3.103886107E0,3.531447425E-2,2.148796022E-1,9.795277596E0,9.797697869E0
3.106405691E0,4.489128292E-2,2.100912035E-1,9.785700798E0,9.788058727E0
3.108925274E0,3.052607179E-2,2.100912035E-1,9.790489197E0,9.792790658E0
3.111444805E0,2.094926499E-2,2.100912035E-1,9.795277596E0,9.797552774E0
3.113964232E0,2.094926499E-2,2.196680009E-1,9.800065994E0,9.802549994E0
3.116483555E0,2.573766746E-2,2.053027898E-1,9.804854393E0,9.807037337E0
3.119002878E0,2.573766746E-2,2.100912035E-1,9.814431190E0,9.816713316E0
3.121522201E0,2.094926499E-2,2.148796022E-1,9.795277596E0,9.797656622E0
3.124041524E0,2.094926499E-2,2.100912035E-1,9.785700798E0,9.787978203E0
3.126560847E0,1.137245819E-2,2.005143911E-1,9.795277596E0,9.797336298E0
3.129080222E0,2.573766746E-2,1.861491799E-1,9.814431190E0,9.816230108E0
3.131599649E0,1.616086066E-2,1.957259923E-1,9.809642792E0,9.811608509E0
3.134119128E0,1.616086066E-2,2.148796022E-1,9.795277596E0,9.797647554E0
3.136638607E0,2.094926499E-2,2.005143911E-1,9.809642792E0,9.811714254E0
3.139158139E0,1.616086066E-2,1.957259923E-1,9.824007988E0,9.825970832E0
3.141677670E0,4.489128292E-2,2.053027898E-1,9.800065994E0,9.802319009E0
3.144197253E0,3.052607179E-2,2.053027898E-1,9.819219589E0,9.821413056E0
3.146716889E0,2.094926499E-2,1.861491799E-1,9.800065994E0,9.801856145E0
3.149236524E0,4.010287672E-2,2.005143911E-1,9.800065994E0,9.802199128E0
3.151756160E0,3.531447425E-2,2.100912035E-1,9.809642792E0,9.811955826E0
3.154275795E0,3.531447425E-2,2.148796022E-1,9.814431190E0,9.816846742E0
3.156795430E0,3.531447425E-2,2.196680009E-1,9.795277596E0,9.797804056E0
3.159315066E0,4.010287672E-2,2.148796022E-1,9.785700798E0,9.788141887E0
3.161834701E0,2.094926499E-2,2.148796022E-1,9.790489197E0,9.792869387E0
3.164354337E0,2.573766746E-2,2.100912035E-1,9.804854393E0,9.807138747E0
3.166873972E0,2.094926499E-2,2.053027898E-1,9.785700798E0,9.787876594E0
3.169393607E0,2.094926499E-2,2.100912035E-1,9.780912399E0,9.783190919E0
3.171913243E0,2.573766746E-2,2.053027898E-1,9.780912399E0,9.783100686E0
3.174432878E0,1.137245819E-2,2.196680009E-1,9.800065994E0,9.802534206E0
3.176952045E0,2.573766746E-2,2.005143911E-1,9.795277596E0,9.797363504E0
3.179471212E0,2.094926499E-2,1.909375787E-1,9.780912399E0,9.782798342E0
3.181990378E0,2.094926499E-2,2.005143911E-1,9.780912399E0,9.782989945E0
3.184509545E0,2.094926499E-2,1.813607812E-1,9.776124001E0,9.777828546E0
3.187028712E0,6.584054790E-3,1.813607812E-1,9.785700798E0,9.787383470E0
3.189547878E0,1.137245819E-2,1.909375787E-1,9.776124001E0,9.777995038E0
3.192067045E0,1.616086066E-2,1.765723825E-1,9.780912399E0,9.782519427E0
3.194586212E0,2.094926499E-2,1.813607812E-1,9.785700798E0,9.787403676E0
3.197105378E0,1.616086066E-2,1.813607812E-1,9.800065994E0,9.801757312E0
3.199624597E0,1.795651275E-3,1.861491799E-1,9.785700798E0,9.787471321E0
3.202143868E0,1.616086066E-2,1.909375787E-1,9.776124001E0,9.778001780E0
3.204663243E0,3.052607179E-2,1.717839688E-1,9.766547203E0,9.768105540E0
3.207182722E0,1.616086066E-2,1.861491799E-1,9.766547203E0,9.768334401E0
3.209702305E0,2.094926499E-2,2.005143911E-1,9.790489197E0,9.792564710E0
3.212221993E0,2.094926499E-2,1.909375787E-1,9.790489197E0,9.792373295E0
3.214741732E0,1.137245819E-2,1.717839688E-1,9.800065994E0,9.801578065E0
3.217261524E0,2.573766746E-2,1.813607812E-1,9.785700798E0,9.787415096E0
3.219781368E0,1.137245819E-2,1.765723825E-1,9.785700798E0,9.787300304E0
3.222301212E0,2.573766746E-2,1.622071713E-1,9.776124001E0,9.777503468E0
3.224821055E0,2.573766746E-2,1.574187577E-1,9.795277596E0,9.796576252E0
3.227340847E0,2.094926499E-2,1.574187577E-1,9.800065994E0,9.801352612E0
3.229860430E0,6.584054790E-3,1.478419602E-1,9.804854393E0,9.805971153E0
3.232380014E0,2.573766746E-2,1.526303589E-1,9.800065994E0,9.801288280E0
3.234899597E0,3.052607179E-2,1.526303589E-1,9.804854393E0,9.806089819E0
3.237419180E0,1.616086066E-2,1.574187577E-1,9.809642792E0,9.810919098E0
3.239938764E0,1.137245819E-2,1.526303589E-1,9.790489197E0,9.791685456E0
3.242458347E0,3.531447425E-2,1.622071713E-1,9.785700798E0,9.787108786E0
3.244977930E0,2.573766746E-2,1.669955701E-1,9.800065994E0,9.801522506E0
3.247497253E0,1.137245819E-2,1.622071713E-1,9.800065994E0,9.801414897E0
3.250016576E0,3.052607179E-2,1.574187577E-1,9.790489197E0,9.791802246E0
3.252535847E0,2.094926499E-2,1.622071713E-1,9.776124001E0,9.777492036E0
3.255055118E0,2.094926499E-2,1.526303589E-1,9.809642792E0,9.810852491E0
3.257574180E0,2.094926499E-2,1.526303589E-1,9.780912399E0,9.782125651E0
3.260093243E0,2.573766746E-2,1.574187577E-1,9.776124001E0,9.777425201E0
3.262612305E0,3.531447425E-2,1.574187577E-1,9.771335602E0,9.772667354E0
3.265131368E0,4.010287672E-2,1.669955701E-1,9.790489197E0,9.791995429E0
3.267650430E0,4.489128292E-2,1.717839688E-1,9.804854393E0,9.806461881E0
3.270169493E0,4.010287672E-2,1.765723825E-1,9.785700798E0,9.787375856E0
3.272688555E0,4.967968538E-2,1.574187577E-1,9.780912399E0,9.782305255E0
3.275207618E0,4.010287672E-2,1.478419602E-1,9.790489197E0,9.791687505E0
3.277726680E0,4.489128292E-2,1.669955701E-1,9.785700798E0,9.787228559E0
3.280245743E0,4.967968538E-2,1.717839688E-1,9.785700798E0,9.787334566E0
3.282764805E0,4.010287672E-2,1.622071713E-1,9.771335602E0,9.772764136E0
3.285283868E0,3.531447425E-2,1.717839688E-1,9.780912399E0,9.782484562E0
3.287802982E0,2.573766746E-2,1.813607812E-1,9.780912399E0,9.782627537E0
3.290322149E0,3.052607179E-2,1.909375787E-1,9.790489197E0,9.792398466E0
3.292841368E0,3.531447425E-2,1.957259923E-1,9.804854393E0,9.806871338E0
3.295360639E0,2.094926499E-2,1.813607812E-1,9.790489197E0,9.792191242E0
3.297879962E0,2.573766746E-2,1.957259923E-1,9.795277596E0,9.797266673E0
3.300399337E0,3.052607179E-2,1.957259923E-1,9.800065994E0,9.802067843E0
3.302918764E0,2.573766746E-2,1.909375787E-1,9.804854393E0,9.806747129E0
3.305438243E0,1.616086066E-2,1.765723825E-1,9.795277596E0,9.796882267E0
3.307957722E0,1.616086066E-2,1.861491799E-1,9.809642792E0,9.811422139E0
3.310477201E0,1.616086066E-2,1.957259923E-1,9.824007988E0,9.825970832E0
3.312996680E0,2.573766746E-2,2.053027898E-1,9.814431190E0,9.816612005E0
3.315516160E0,3.531447425E-2,2.005143911E-1,9.824007988E0,9.826117549E0
3.318035639E0,3.052607179E-2,2.005143911E-1,9.814431190E0,9.816526751E0
3.320554962E0,3.531447425E-2,2.053027898E-1,9.819219589E0,9.821429106E0
3.323074285E0,4.967968538E-2,2.005143911E-1,9.828796387E0,9.830967018E0
3.325593399E0,2.094926499E-2,2.244564146E-1,9.824007988E0,9.826594146E0
3.328112514E0,1.137245819E-2,2.244564146E-1,9.824007988E0,9.826578395E0
3.330631628E0,6.584054790E-3,2.388216257E-1,9.824007988E0,9.826912642E0
3.333150743E0,-2.992752008E-3,2.388216257E-1,9.824007988E0,9.826910892E0
3.335669910E0,1.137245819E-2,2.244564146E-1,9.824007988E0,9.826578395E0
3.338189128E0,1.137245819E-2,2.244564146E-1,9.828796387E0,9.831365542E0
3.340708399E0,1.137245819E-2,2.244564146E-1,9.833584785E0,9.836152690E0
3.343227722E0,2.094926499E-2,2.148796022E-1,9.809642792E0,9.812018336E0
3.345747097E0,1.616086066E-2,2.340332121E-1,9.790489197E0,9.793299313E0
3.348266524E0,2.094926499E-2,2.388216257E-1,9.780912399E0,9.783850060E0
3.350786003E0,2.094926499E-2,2.340332121E-1,9.790489197E0,9.793308385E0
3.353305482E0,1.616086066E-2,2.340332121E-1,9.776124001E0,9.778938245E0
3.355824962E0,1.616086066E-2,2.388216257E-1,9.780912399E0,9.783840979E0
3.358344441E0,2.573766746E-2,2.292448133E-1,9.766547203E0,9.769271205E0
3.360863920E0,2.573766746E-2,2.292448133E-1,9.771335602E0,9.774058269E0
3.363383451E0,3.531447425E-2,2.244564146E-1,9.776124001E0,9.778764148E0
3.365903035E0,4.489128292E-2,2.244564146E-1,9.776124001E0,9.778803423E0
3.368422670E0,4.967968538E-2,2.196680009E-1,9.761758804E0,9.764356459E0
3.370942357E0,3.052607179E-2,2.292448133E-1,9.747393608E0,9.750136777E0
3.373462097E0,3.052607179E-2,2.196680009E-1,9.756970406E0,9.759490631E0
3.375981889E0,5.446808785E-2,2.148796022E-1,9.756970406E0,9.759488281E0
3.378501680E0,4.967968538E-2,2.100912035E-1,9.766547203E0,9.768932933E0
3.381021472E0,4.967968538E-2,2.005143911E-1,9.766547203E0,9.768731666E0
3.383541264E0,4.967968538E-2,1.909375787E-1,9.771335602E0,9.773327206E0
3.386060743E0,5.446808785E-2,2.005143911E-1,9.780912399E0,9.783119142E0
3.388580170E0,4.967968538E-2,2.292448133E-1,9.785700798E0,9.788511703E0
3.391099597E0,4.010287672E-2,2.148796022E-1,9.780912399E0,9.783354683E0
3.393619024E0,4.967968538E-2,2.005143911E-1,9.785700798E0,9.787880986E0
3.396138451E0,5.446808785E-2,1.861491799E-1,9.780912399E0,9.782835256E0
3.398657878E0,5.925649032E-2,1.957259923E-1,9.776124001E0,9.778262651E0
3.401177149E0,5.925649032E-2,1.813607812E-1,9.771335602E0,9.773198172E0
3.403696264E0,4.967968538E-2,1.909375787E-1,9.785700798E0,9.787689479E0
3.406215378E0,4.489128292E-2,1.909375787E-1,9.790489197E0,9.792453783E0
3.408734493E0,4.967968538E-2,1.861491799E-1,9.785700798E0,9.787597238E0
3.411253607E0,5.925649032E-2,1.813607812E-1,9.790489197E0,9.792348124E0
3.413772722E0,4.010287672E-2,1.669955701E-1,9.804854393E0,9.806358418E0
3.416291837E0,4.010287672E-2,1.669955701E-1,9.800065994E0,9.801570754E0
3.418810951E0,5.446808785E-2,1.765723825E-1,9.790489197E0,9.792232804E0
3.421330118E0,5.446808785E-2,1.669955701E-1,9.795277596E0,9.796852426E0
3.423849337E0,5.446808785E-2,1.669955701E-1,9.809642792E0,9.811215317E0
3.426368607E0,5.446808785E-2,1.622071713E-1,9.804854393E0,9.806347312E0
3.428887930E0,4.010287672E-2,1.622071713E-1,9.809642792E0,9.811065748E0
3.431407305E0,4.967968538E-2,1.622071713E-1,9.800065994E0,9.801534203E0
3.433926732E0,4.010287672E-2,1.574187577E-1,9.804854393E0,9.806200007E0
3.436446160E0,3.531447425E-2,1.622071713E-1,9.800065994E0,9.801471919E0
3.438965587E0,4.010287672E-2,1.717839688E-1,9.809642792E0,9.811228755E0
3.441485014E0,2.573766746E-2,1.717839688E-1,9.814431190E0,9.815968202E0
3.444004493E0,4.010287672E-2,1.717839688E-1,9.819219589E0,9.820804005E0
3.446524024E0,5.446808785E-2,1.717839688E-1,9.824007988E0,9.825660764E0
3.449043555E0,3.531447425E-2,1.669955701E-1,9.833584785E0,9.835066058E0
3.451563087E0,3.052607179E-2,1.622071713E-1,9.800065994E0,9.801455836E0
3.454082618E0,3.531447425E-2,1.478419602E-1,9.776124001E0,9.777305602E0
3.456602149E0,4.010287672E-2,1.574187577E-1,9.780912399E0,9.782261306E0
3.459121680E0,3.052607179E-2,1.526303589E-1,9.790489197E0,9.791726435E0
3.461641212E0,3.052607179E-2,1.669955701E-1,9.809642792E0,9.811111612E0
3.464160795E0,1.616086066E-2,1.622071713E-1,9.809642792E0,9.810997097E0
3.466680378E0,6.584054790E-3,1.622071713E-1,9.790489197E0,9.791835029E0
3.469199962E0,1.137245819E-2,1.574187577E-1,9.780912399E0,9.782185715E0
3.471719545E0,1.137245819E-2,1.765723825E-1,9.785700798E0,9.787300304E0
3.474239128E0,2.094926499E-2,1.669955701E-1,9.790489197E0,9.791935718E0
3.476758712E0,1.616086066E-2,1.813607812E-1,9.785700798E0,9.787394598E0
3.479278295E0,6.584054790E-3,1.717839688E-1,9.795277596E0,9.796786017E0
3.481797462E0,1.137245819E-2,1.717839688E-1,9.795277596E0,9.796790405E0
3.484316628E0,2.573766746E-2,1.813607812E-1,9.790489197E0,9.792202657E0
3.486835795E0,2.573766746E-2,1.717839688E-1,9.795277596E0,9.796817613E0
3.489355014E0,6.584054790E-3,1.717839688E-1,9.785700798E0,9.787210695E0
3.491874285E0,1.795651275E-3,1.765723825E-1,9.785700798E0,9.787293862E0
3.494393607E0,6.584054790E-3,1.813607812E-1,9.790489197E0,9.792171046E0
3.496912982E0,6.584054790E-3,1.813607812E-1,9.800065994E0,9.801746200E0
3.499432410E0,-2.992752008E-3,1.813607812E-1,9.800065994E0,9.801744446E0
3.501951889E0,6.584054790E-3,1.861491799E-1,9.776124001E0,9.777898309E0
3.504471420E0,6.584054790E-3,1.957259923E-1,9.780912399E0,9.782872757E0
3.506991003E0,1.616086066E-2,2.100912035E-1,9.780912399E0,9.783181837E0
3.509510587E0,1.137245819E-2,2.100912035E-1,9.780912399E0,9.783175099E0
3.512030170E0,1.137245819E-2,2.053027898E-1,9.776124001E0,9.778286099E0
3.514549753E0,2.573766746E-2,2.053027898E-1,9.780912399E0,9.783100686E0
3.517069337E0,1.137245819E-2,2.100912035E-1,9.795277596E0,9.797536977E0
3.519588920E0,6.584054790E-3,2.053027898E-1,9.776124001E0,9.778281703E0
3.522108503E0,6.584054790E-3,2.100912035E-1,9.776124001E0,9.778383411E0
3.524627878E0,6.584054790E-3,2.053027898E-1,9.771335602E0,9.773494361E0
3.527147253E0,2.573766746E-2,2.100912035E-1,9.780912399E0,9.783202344E0
3.529666576E0,2.573766746E-2,2.053027898E-1,9.790489197E0,9.792675343E0
3.532185899E0,2.094926499E-2,2.148796022E-1,9.790489197E0,9.792869387E0
3.534705222E0,3.052607179E-2,2.196680009E-1,9.800065994E0,9.802575139E0
3.537224545E0,3.052607179E-2,2.005143911E-1,9.800065994E0,9.802164626E0
3.539743868E0,4.010287672E-2,2.005143911E-1,9.785700798E0,9.787837063E0
3.542263191E0,3.052607179E-2,2.100912035E-1,9.785700798E0,9.788003385E0
3.544782566E0,3.052607179E-2,2.244564146E-1,9.790489197E0,9.793109375E0
3.547301993E0,2.573766746E-2,2.148796022E-1,9.800065994E0,9.802455262E0
3.549821472E0,2.573766746E-2,2.100912035E-1,9.800065994E0,9.802351464E0
3.552341003E0,2.573766746E-2,2.005143911E-1,9.780912399E0,9.783001370E0
3.554860535E0,4.010287672E-2,2.148796022E-1,9.776124001E0,9.778567480E0
3.557380066E0,4.010287672E-2,2.340332121E-1,9.761758804E0,9.764646166E0
3.559899597E0,4.010287672E-2,2.196680009E-1,9.776124001E0,9.778673875E0
3.562419128E0,4.010287672E-2,1.909375787E-1,9.776124001E0,9.778070662E0
3.564938660E0,4.489128292E-2,2.005143911E-1,9.785700798E0,9.787857853E0
3.567458191E0,5.446808785E-2,2.244564146E-1,9.800065994E0,9.802787407E0
3.569977722E0,4.967968538E-2,2.340332121E-1,9.809642792E0,9.812559876E0
3.572497149E0,5.925649032E-2,1.957259923E-1,9.795277596E0,9.797412065E0
3.575016316E0,4.489128292E-2,1.909375787E-1,9.795277596E0,9.797241222E0
3.577535482E0,4.489128292E-2,1.909375787E-1,9.795277596E0,9.797241222E0
3.580054649E0,4.489128292E-2,1.957259923E-1,9.785700798E0,9.787760929E0
3.582573816E0,4.489128292E-2,1.957259923E-1,9.804854393E0,9.806910500E0
3.585092982E0,3.531447425E-2,1.909375787E-1,9.800065994E0,9.801989480E0
3.587612149E0,5.925649032E-2,1.909375787E-1,9.804854393E0,9.806892380E0
3.590131316E0,5.925649032E-2,1.957259923E-1,9.780912399E0,9.783050003E0
3.592650535E0,4.967968538E-2,1.909375787E-1,9.800065994E0,9.802051761E0
3.595169805E0,5.446808785E-2,2.053027898E-1,9.785700798E0,9.788005727E0
3.597689180E0,4.010287672E-2,2.053027898E-1,9.785700798E0,9.787936329E0
3.600208660E0,4.489128292E-2,1.909375787E-1,9.790489197E0,9.792453783E0
3.602728243E0,3.531447425E-2,1.861491799E-1,9.800065994E0,9.801897374E0
3.605247930E0,4.010287672E-2,1.765723825E-1,9.785700798E0,9.787375856E0
3.607767722E0,2.573766746E-2,1.861491799E-1,9.795277596E0,9.797080030E0
3.610287618E0,1.616086066E-2,1.909375787E-1,9.804854393E0,9.806726671E0
3.612807566E0,6.584054790E-3,1.765723825E-1,9.804854393E0,9.806446391E0
3.615327566E0,2.094926499E-2,1.765723825E-1,9.800065994E0,9.801678946E0
3.617847618E0,3.052607179E-2,1.813607812E-1,9.800065994E0,9.801791523E0
3.620367670E0,3.052607179E-2,1.765723825E-1,9.800065994E0,9.801704094E0
3.622887722E0,2.094926499E-2,1.765723825E-1,9.800065994E0,9.801678946E0
3.625407722E0,6.584054790E-3,1.717839688E-1,9.809642792E0,9.811149004E0
3.627927097E0,6.584054790E-3,1.717839688E-1,9.828796387E0,9.830299664E0
3.630446472E0,1.616086066E-2,1.765723825E-1,9.828796387E0,9.830395587E0
3.632965847E0,1.795651275E-3,1.622071713E-1,9.833584785E0,9.834922680E0
3.635485222E0,-2.992752008E-3,1.669955701E-1,9.824007988E0,9.825427697E0
3.638004597E0,1.795651275E-3,1.765723825E-1,9.814431190E0,9.816019592E0
3.640524024E0,1.795651275E-3,1.861491799E-1,9.804854393E0,9.806621457E0
3.643043503E0,6.584054790E-3,1.909375787E-1,9.795277596E0,9.797140587E0
3.645563035E0,-2.992752008E-3,1.861491799E-1,9.800065994E0,9.801834214E0
3.648082618E0,1.795651275E-3,1.861491799E-1,9.795277596E0,9.797046387E0
3.650602253E0,6.584054790E-3,1.909375787E-1,9.795277596E0,9.797140587E0
3.653121889E0,1.137245819E-2,1.909375787E-1,9.790489197E0,9.792357490E0
3.655641524E0,-2.992752008E-3,1.909375787E-1,9.780912399E0,9.782776369E0
3.658161160E0,1.795651275E-3,1.765723825E-1,9.771335602E0,9.772931007E0
3.660680795E0,2.094926499E-2,1.765723825E-1,9.790489197E0,9.792103726E0
3.663200430E0,1.137245819E-2,1.861491799E-1,9.804854393E0,9.806627887E0
3.665720066E0,6.584054790E-3,1.909375787E-1,9.804854393E0,9.806715565E0
3.668239753E0,1.616086066E-2,1.957259923E-1,9.804854393E0,9.806821070E0
3.670759493E0,2.573766746E-2,2.196680009E-1,9.800065994E0,9.802561397E0
3.673279285E0,1.616086066E-2,2.148796022E-1,9.780912399E0,9.783285838E0
3.675799128E0,3.531447425E-2,2.005143911E-1,9.790489197E0,9.792605978E0
3.678318972E0,2.094926499E-2,2.053027898E-1,9.804854393E0,9.807025939E0
3.680838816E0,2.094926499E-2,1.957259923E-1,9.800065994E0,9.802042697E0
3.683358660E0,2.094926499E-2,1.957259923E-1,9.785700798E0,9.787680402E0
3.685878347E0,2.573766746E-2,2.053027898E-1,9.785700798E0,9.787888014E0
3.688397826E0,3.531447425E-2,2.053027898E-1,9.790489197E0,9.792705196E0
3.690916993E0,4.489128292E-2,2.196680009E-1,9.785700798E0,9.788268967E0
3.693436160E0,4.010287672E-2,2.100912035E-1,9.780912399E0,9.783250683E0
3.695955326E0,4.010287672E-2,1.957259923E-1,9.761758804E0,9.763803145E0
3.698474493E0,4.489128292E-2,1.957259923E-1,9.776124001E0,9.778186149E0
3.700993660E0,3.531447425E-2,2.053027898E-1,9.790489197E0,9.792705196E0
3.703512826E0,4.967968538E-2,1.909375787E-1,9.800065994E0,9.802051761E0
3.706032045E0,6.404489279E-2,1.861491799E-1,9.785700798E0,9.787680694E0
3.708551316E0,5.446808785E-2,1.957259923E-1,9.785700798E0,9.787809538E0
3.711070639E0,5.446808785E-2,1.909375787E-1,9.771335602E0,9.773352719E0
3.713590014E0,5.446808785E-2,1.813607812E-1,9.795277596E0,9.797107822E0
3.716109441E0,5.925649032E-2,1.765723825E-1,9.780912399E0,9.782685546E0
3.718628920E0,5.925649032E-2,1.861491799E-1,9.771335602E0,9.773288203E0
3.721148451E0,5.925649032E-2,1.861491799E-1,9.780912399E0,9.782863089E0
3.723668035E0,5.925649032E-2,1.813607812E-1,9.785700798E0,9.787560634E0
3.726187670E0,5.446808785E-2,1.669955701E-1,9.800065994E0,9.801640056E0
3.728707305E0,6.404489279E-2,1.669955701E-1,9.795277596E0,9.796910352E0
3.731226941E0,6.404489279E-2,1.765723825E-1,9.790489197E0,9.792290757E0
3.733746576E0,6.883329898E-2,1.765723825E-1,9.795277596E0,9.797110748E0
3.736266212E0,7.841010392E-2,1.669955701E-1,9.785700798E0,9.787439694E0
3.738785795E0,5.925649032E-2,1.669955701E-1,9.804854393E0,9.806455451E0
3.741304910E0,4.489128292E-2,1.574187577E-1,9.800065994E0,9.801433027E0
3.743824024E0,3.531447425E-2,1.622071713E-1,9.795277596E0,9.796684207E0
3.746343139E0,4.010287672E-2,1.622071713E-1,9.809642792E0,9.811065748E0
3.748862253E0,5.925649032E-2,1.430535465E-1,9.804854393E0,9.806076959E0
3.751381368E0,4.489128292E-2,1.382651478E-1,9.804854393E0,9.805931988E0
3.753900482E0,4.489128292E-2,1.334767491E-1,9.795277596E0,9.796289830E0
3.756419597E0,4.967968538E-2,1.334767491E-1,9.819219589E0,9.820252413E0
3.758938712E0,4.489128292E-2,1.574187577E-1,9.819219589E0,9.820583956E0
3.761457878E0,4.489128292E-2,1.478419602E-1,9.819219589E0,9.820435113E0
3.763977149E0,3.531447425E-2,1.526303589E-1,9.800065994E0,9.801318107E0
3.766496524E0,3.531447425E-2,1.622071713E-1,9.790489197E0,9.791896496E0
3.769016003E0,3.531447425E-2,1.478419602E-1,9.795277596E0,9.796456887E0
3.771535639E0,2.573766746E-2,1.430535465E-1,9.800065994E0,9.801143823E0
3.774055430E0,2.573766746E-2,1.382651478E-1,9.800065994E0,9.801075103E0
3.776575378E0,2.094926499E-2,1.382651478E-1,9.809642792E0,9.810639522E0
3.779095430E0,1.616086066E-2,1.622071713E-1,9.819219589E0,9.820572574E0
3.781615587E0,2.573766746E-2,1.574187577E-1,9.809642792E0,9.810939547E0
3.784135795E0,2.573766746E-2,1.622071713E-1,9.804854393E0,9.806229819E0
3.786656055E0,2.573766746E-2,1.669955701E-1,9.790489197E0,9.791947133E0
3.789176316E0,2.094926499E-2,1.574187577E-1,9.800065994E0,9.801352612E0
3.791696576E0,2.094926499E-2,1.526303589E-1,9.819219589E0,9.820428109E0
3.794216785E0,1.137245819E-2,1.622071713E-1,9.809642792E0,9.810990378E0
3.796736160E0,1.616086066E-2,1.526303589E-1,9.819219589E0,9.820419061E0
3.799255430E0,1.616086066E-2,1.478419602E-1,9.809642792E0,9.810770108E0
3.801774649E0,2.573766746E-2,1.526303589E-1,9.795277596E0,9.796500479E0
3.804293868E0,6.584054790E-3,1.717839688E-1,9.785700798E0,9.787210695E0
3.806813087E0,6.584054790E-3,1.622071713E-1,9.795277596E0,9.796622770E0
3.809332305E0,6.584054790E-3,1.765723825E-1,9.804854393E0,9.806446391E0
3.811851524E0,1.137245819E-2,1.765723825E-1,9.790489197E0,9.792087921E0
3.814370743E0,1.137245819E-2,1.765723825E-1,9.785700798E0,9.787300304E0
3.816889962E0,6.584054790E-3,1.717839688E-1,9.804854393E0,9.806361341E0
3.819409180E0,1.137245819E-2,1.861491799E-1,9.795277596E0,9.797052823E0
3.821928399E0,1.137245819E-2,2.053027898E-1,9.790489197E0,9.792648124E0
3.824447618E0,6.584054790E-3,2.100912035E-1,9.795277596E0,9.797532589E0
3.826966837E0,1.137245819E-2,1.909375787E-1,9.800065994E0,9.801932462E0
3.829486055E0,2.573766746E-2,1.813607812E-1,9.800065994E0,9.801777780E0
3.832005274E0,1.137245819E-2,2.005143911E-1,9.795277596E0,9.797336298E0
3.834524493E0,1.795651275E-3,2.005143911E-1,9.795277596E0,9.797329862E0
3.837043712E0,1.616086066E-2,1.909375787E-1,9.785700798E0,9.787576740E0
3.839562930E0,1.616086066E-2,1.957259923E-1,9.804854393E0,9.806821070E0
3.842082149E0,1.137245819E-2,2.196680009E-1,9.790489197E0,9.792959822E0
3.844601420E0,6.584054790E-3,2.244564146E-1,9.800065994E0,9.802638294E0
3.847120743E0,1.137245819E-2,2.196680009E-1,9.790489197E0,9.792959822E0
3.849640118E0,1.616086066E-2,2.148796022E-1,9.800065994E0,9.802434795E0
3.852159597E0,1.616086066E-2,2.148796022E-1,9.790489197E0,9.792860314E0
3.854679180E0,3.052607179E-2,2.148796022E-1,9.809642792E0,9.812043456E0
3.857198868E0,3.052607179E-2,2.340332121E-1,9.800065994E0,9.802907573E0
3.859718660E0,4.010287672E-2,2.244564146E-1,9.795277596E0,9.797931011E0
3.862238555E0,2.094926499E-2,2.340332121E-1,9.800065994E0,9.802882429E0
3.864758555E0,3.052607179E-2,2.196680009E-1,9.800065994E0,9.802575139E0
3.867278660E0,2.573766746E-2,2.196680009E-1,9.785700798E0,9.788199863E0
3.869798816E0,2.573766746E-2,2.148796022E-1,9.780912399E0,9.783306345E0
3.872319024E0,2.573766746E-2,2.148796022E-1,9.785700798E0,9.788093572E0
3.874839285E0,3.531447425E-2,2.100912035E-1,9.795277596E0,9.797594021E0
3.877359545E0,2.573766746E-2,2.100912035E-1,9.790489197E0,9.792776902E0
3.879878712E0,1.616086066E-2,2.148796022E-1,9.780912399E0,9.783285838E0
3.882397878E0,3.052607179E-2,2.053027898E-1,9.785700798E0,9.787901776E0
3.884917045E0,3.052607179E-2,2.100912035E-1,9.785700798E0,9.788003385E0
3.887436212E0,4.010287672E-2,2.148796022E-1,9.771335602E0,9.773780278E0
3.889955378E0,4.489128292E-2,2.100912035E-1,9.776124001E0,9.778484239E0
3.892474545E0,3.531447425E-2,2.100912035E-1,9.790489197E0,9.792806755E0
3.894993712E0,4.489128292E-2,2.148796022E-1,9.780912399E0,9.783375483E0
3.897512878E0,4.967968538E-2,2.053027898E-1,9.785700798E0,9.787980252E0
3.900031941E0,3.531447425E-2,1.909375787E-1,9.800065994E0,9.801989480E0
3.902550847E0,2.094926499E-2,2.053027898E-1,9.800065994E0,9.802238601E0
3.905069649E0,1.616086066E-2,1.909375787E-1,9.780912399E0,9.782789259E0
3.907588451E0,4.010287672E-2,1.957259923E-1,9.780912399E0,9.782952738E0
3.910107253E0,4.010287672E-2,1.861491799E-1,9.780912399E0,9.782765822E0
3.912626055E0,3.052607179E-2,1.813607812E-1,9.804854393E0,9.806579079E0
3.915144857E0,3.531447425E-2,1.861491799E-1,9.800065994E0,9.801897374E0
3.917663660E0,1.616086066E-2,1.957259923E-1,9.790489197E0,9.792458759E0
3.920182514E0,1.616086066E-2,1.957259923E-1,9.771335602E0,9.773309024E0
3.922701420E0,3.052607179E-2,1.813607812E-1,9.790489197E0,9.792216413E0
3.925220378E0,1.616086066E-2,1.861491799E-1,9.795277596E0,9.797059552E0
3.927739389E0,6.584054790E-3,1.813607812E-1,9.795277596E0,9.796958623E0
3.930258451E0,2.573766746E-2,1.717839688E-1,9.795277596E0,9.796817613E0
3.932777566E0,6.584054790E-3,1.765723825E-1,9.809642792E0,9.811234013E0
3.935296732E0,1.795651275E-3,1.861491799E-1,9.785700798E0,9.787471321E0
3.937815951E0,6.584054790E-3,1.861491799E-1,9.776124001E0,9.777898309E0
3.940335222E0,1.137245819E-2,1.813607812E-1,9.771335602E0,9.773025146E0
3.942854545E0,6.584054790E-3,1.765723825E-1,9.780912399E0,9.782508294E0
3.945373920E0,1.137245819E-2,1.813607812E-1,9.785700798E0,9.787387863E0
3.947893347E0,3.052607179E-2,1.909375787E-1,9.766547203E0,9.768461152E0
3.950412774E0,1.616086066E-2,1.813607812E-1,9.771335602E0,9.773031891E0
3.952932201E0,6.584054790E-3,1.957259923E-1,9.776124001E0,9.778085318E0
3.955451628E0,1.137245819E-2,2.005143911E-1,9.771335602E0,9.773399347E0
3.957971055E0,6.584054790E-3,1.861491799E-1,9.776124001E0,9.777898309E0
3.960490482E0,1.616086066E-2,1.622071713E-1,9.790489197E0,9.791846151E0
3.963009910E0,3.052607179E-2,1.909375787E-1,9.790489197E0,9.792398466E0
3.965529337E0,2.094926499E-2,1.813607812E-1,9.790489197E0,9.792191242E0
3.968048764E0,2.094926499E-2,1.909375787E-1,9.800065994E0,9.801948251E0
3.970568191E0,3.531447425E-2,2.005143911E-1,9.800065994E0,9.802180708E0
3.973087670E0,2.094926499E-2,2.053027898E-1,9.790489197E0,9.792663929E0
3.975607201E0,2.573766746E-2,2.005143911E-1,9.800065994E0,9.802150883E0
3.978126785E0,3.531447425E-2,2.005143911E-1,9.819219589E0,9.821330178E0
3.980646420E0,4.489128292E-2,1.957259923E-1,9.809642792E0,9.811697896E0
3.983166107E0,3.531447425E-2,2.100912035E-1,9.809642792E0,9.811955826E0
3.985685795E0,1.616086066E-2,2.196680009E-1,9.814431190E0,9.816902505E0
3.988205482E0,3.052607179E-2,2.100912035E-1,9.819219589E0,9.821514318E0
3.990725170E0,3.052607179E-2,2.005143911E-1,9.809642792E0,9.811739375E0
3.993244857E0,2.573766746E-2,2.005143911E-1,9.800065994E0,9.802150883E0
3.995764545E0,2.573766746E-2,2.244564146E-1,9.809642792E0,9.812244127E0
3.998284232E0,3.531447425E-2,2.244564146E-1,9.804854393E0,9.807486807E0
4.000803920E0,3.052607179E-2,2.148796022E-1,9.790489197E0,9.792894557E0
4.003323607E0,2.573766746E-2,2.148796022E-1,9.795277596E0,9.797668031E0
4.005842930E0,4.010287672E-2,2.148796022E-1,9.804854393E0,9.807290714E0
4.008362201E0,4.489128292E-2,2.244564146E-1,9.800065994E0,9.802738872E0
4.010881212E0,4.967968538E-2,2.244564146E-1,9.780912399E0,9.783613653E0
4.013400222E0,4.010287672E-2,2.148796022E-1,9.780912399E0,9.783354683E0
4.015919232E0,4.010287672E-2,2.100912035E-1,9.776124001E0,9.778463429E0
4.018438243E0,4.967968538E-2,2.100912035E-1,9.780912399E0,9.783294626E0
4.020957305E0,4.010287672E-2,2.005143911E-1,9.795277596E0,9.797411772E0
4.023476420E0,4.010287672E-2,2.148796022E-1,9.790489197E0,9.792929092E0
4.025995639E0,2.573766746E-2,2.100912035E-1,9.785700798E0,9.787989622E0
4.028514962E0,4.967968538E-2,2.196680009E-1,9.790489197E0,9.793079230E0
4.031034389E0,5.446808785E-2,2.100912035E-1,9.790489197E0,9.792894557E0
4.033553920E0,4.967968538E-2,2.100912035E-1,9.795277596E0,9.797656330E0
4.036073555E0,3.052607179E-2,2.100912035E-1,9.804854393E0,9.807152483E0
4.038593243E0,3.052607179E-2,2.005143911E-1,9.780912399E0,9.783015140E0
4.041112982E0,3.052607179E-2,2.053027898E-1,9.785700798E0,9.787901776E0
4.043632774E0,4.010287672E-2,2.005143911E-1,9.790489197E0,9.792624417E0
4.046152618E0,3.531447425E-2,2.100912035E-1,9.780912399E0,9.783232226E0
4.048672462E0,3.052607179E-2,2.053027898E-1,9.795277596E0,9.797476423E0
4.051192305E0,2.573766746E-2,2.148796022E-1,9.800065994E0,9.802455262E0
4.053712149E0,2.573766746E-2,2.005143911E-1,9.776124001E0,9.778213995E0
4.056231993E0,2.573766746E-2,1.861491799E-1,9.790489197E0,9.792292513E0
4.058751785E0,3.531447425E-2,1.909375787E-1,9.790489197E0,9.792414563E0
4.061271576E0,3.052607179E-2,1.813607812E-1,9.771335602E0,9.773066203E0
4.063791316E0,1.616086066E-2,1.813607812E-1,9.780912399E0,9.782607028E0
4.066310899E0,1.616086066E-2,2.005143911E-1,9.795277596E0,9.797343026E0
4.068830430E0,1.795651275E-3,1.957259923E-1,9.771335602E0,9.773295827E0
4.071349962E0,1.616086066E-2,1.957259923E-1,9.790489197E0,9.792458759E0
4.073869493E0,2.573766746E-2,1.861491799E-1,9.790489197E0,9.792292513E0
4.076389024E0,2.094926499E-2,1.717839688E-1,9.790489197E0,9.792018552E0
4.078908555E0,2.094926499E-2,1.717839688E-1,9.785700798E0,9.787230901E0
4.081428087E0,2.573766746E-2,1.622071713E-1,9.795277596E0,9.796654366E0
4.083947618E0,3.531447425E-2,1.574187577E-1,9.790489197E0,9.791818344E0
4.086467149E0,3.052607179E-2,1.765723825E-1,9.800065994E0,9.801704094E0
4.088986680E0,2.094926499E-2,1.717839688E-1,9.804854393E0,9.806381508E0
4.091506264E0,2.094926499E-2,1.622071713E-1,9.809642792E0,9.811006153E0
4.094025899E0,2.573766746E-2,1.622071713E-1,9.814431190E0,9.815805274E0
4.096545535E0,2.573766746E-2,1.574187577E-1,9.800065994E0,9.801364017E0
4.099065170E0,2.573766746E-2,1.717839688E-1,9.790489197E0,9.792029967E0
4.101584805E0,2.094926499E-2,1.717839688E-1,9.795277596E0,9.796806203E0
4.104104441E0,2.573766746E-2,1.813607812E-1,9.800065994E0,9.801777780E0
4.106624128E0,2.573766746E-2,1.717839688E-1,9.790489197E0,9.792029967E0
4.109143868E0,4.967968538E-2,1.669955701E-1,9.819219589E0,9.820765191E0
4.111663660E0,4.489128292E-2,1.669955701E-1,9.800065994E0,9.801591516E0
4.114183451E0,4.010287672E-2,1.526303589E-1,9.795277596E0,9.796548751E0
4.116703243E0,3.531447425E-2,1.430535465E-1,9.809642792E0,9.810749366E0
4.119223035E0,4.010287672E-2,1.526303589E-1,9.804854393E0,9.806124308E0
4.121742826E0,4.489128292E-2,1.574187577E-1,9.804854393E0,9.806220758E0
4.124262618E0,4.489128292E-2,1.526303589E-1,9.809642792E0,9.810932828E0
4.126782410E0,3.052607179E-2,1.717839688E-1,9.819219589E0,9.820769568E0
4.129302201E0,4.967968538E-2,1.669955701E-1,9.814431190E0,9.815977546E0
4.131821993E0,5.446808785E-2,1.765723825E-1,9.795277596E0,9.797020351E0
4.134341785E0,4.489128292E-2,1.765723825E-1,9.790489197E0,9.792184217E0
4.136861472E0,3.531447425E-2,1.717839688E-1,9.800065994E0,9.801635085E0
4.139380899E0,2.573766746E-2,1.813607812E-1,9.790489197E0,9.792202657E0
4.141900326E0,3.531447425E-2,1.765723825E-1,9.795277596E0,9.796932586E0
4.144419753E0,3.052607179E-2,1.765723825E-1,9.780912399E0,9.782553706E0
4.146939024E0,2.573766746E-2,1.861491799E-1,9.766547203E0,9.768354939E0
4.149458295E0,3.531447425E-2,1.813607812E-1,9.761758804E0,9.763507249E0
4.151977566E0,3.531447425E-2,1.765723825E-1,9.780912399E0,9.782569820E0
4.154496837E0,2.094926499E-2,1.861491799E-1,9.776124001E0,9.777918534E0
4.157016107E0,2.573766746E-2,1.909375787E-1,9.785700798E0,9.787597238E0
4.159535378E0,2.094926499E-2,1.765723825E-1,9.780912399E0,9.782528510E0
4.162054649E0,2.573766746E-2,1.813607812E-1,9.771335602E0,9.773052420E0
4.164573920E0,1.616086066E-2,1.909375787E-1,9.780912399E0,9.782789259E0
4.167093191E0,3.531447425E-2,1.669955701E-1,9.771335602E0,9.772826309E0
4.169612462E0,4.010287672E-2,1.669955701E-1,9.785700798E0,9.787207767E0
4.172131732E0,3.052607179E-2,1.861491799E-1,9.771335602E0,9.773156235E0
4.174651003E0,2.573766746E-2,1.765723825E-1,9.790489197E0,9.792115142E0
4.177170326E0,1.616086066E-2,2.053027898E-1,9.800065994E0,9.802229537E0
4.179689701E0,1.616086066E-2,1.957259923E-1,9.804854393E0,9.806821070E0
4.182209128E0,2.573766746E-2,2.005143911E-1,9.809642792E0,9.811725646E0
4.184728607E0,2.573766746E-2,1.861491799E-1,9.795277596E0,9.797080030E0
4.187248139E0,1.616086066E-2,1.717839688E-1,9.795277596E0,9.796797134E0
4.189767722E0,2.573766746E-2,2.005143911E-1,9.809642792E0,9.811725646E0
4.192287357E0,2.573766746E-2,1.957259923E-1,9.800065994E0,9.802054100E0
4.194807045E0,2.573766746E-2,2.005143911E-1,9.814431190E0,9.816513029E0
4.197326732E0,2.094926499E-2,2.005143911E-1,9.819219589E0,9.821289031E0
