"Time (s)","Linear Acceleration x (m/s^2)","Linear Acceleration y (m/s^2)","Linear Acceleration z (m/s^2)","Absolute acceleration (m/s^2)"
7.329314300E-2,-1.004415303E-1,-2.188706398E-2,2.045984268E-1,2.289717468E-1
7.837366400E-2,-6.630165875E-2,-2.896593511E-2,1.348829269E-1,1.530631874E-1
8.346861200E-2,-2.622050047E-2,-1.802240312E-2,8.473110199E-2,9.050790741E-2
8.856861200E-2,-3.323519230E-2,-2.130790055E-2,7.423114777E-2,8.407655994E-2
9.366861200E-2,-4.864832759E-2,-6.559625268E-3,1.184387207E-1,1.282084982E-1
9.876861200E-2,-6.331510842E-2,-6.180763245E-3,1.604127884E-1,1.725667044E-1
1.038686120E-1,-6.859958172E-2,-5.798444152E-3,1.690034866E-1,1.824875422E-1
1.089189770E-1,-5.603420734E-2,-1.455211639E-2,1.460504532E-1,1.571061150E-1
1.139396540E-1,-4.425188899E-2,-2.293762565E-2,1.066102982E-1,1.176865329E-1
1.189603310E-1,-3.758400679E-2,-1.737044752E-2,6.943607330E-2,8.084341834E-2
1.239809560E-1,-4.025158286E-2,-1.667232811E-2,7.980823517E-2,9.092585357E-2
1.290015810E-1,-5.655217171E-2,-1.152254641E-2,7.617568970E-2,9.557014650E-2
1.340222060E-1,-8.147031814E-2,-2.026155591E-2,8.660125732E-2,1.206139343E-1
1.390428310E-1,-5.976450443E-2,-1.490820944E-2,9.216976166E-2,1.108571859E-1
1.440634560E-1,-5.751784891E-2,-1.434208453E-2,8.388710022E-2,1.027182745E-1
1.490840810E-1,-4.163714498E-2,-2.768327296E-2,7.605648041E-2,9.101979815E-2
1.541047060E-1,-3.096816689E-2,-1.751665771E-2,9.168338776E-2,9.834482319E-2
1.591253310E-1,-2.985753864E-2,-7.687211037E-3,9.764289856E-2,1.023948312E-1
1.641459560E-1,-1.957603544E-2,1.743912697E-3,1.035213470E-1,1.053704498E-1
1.691665810E-1,-1.434026659E-2,-3.024205565E-3,8.155441284E-2,8.286079482E-2
1.741872060E-1,-2.792561054E-2,-7.641896605E-3,7.892322540E-2,8.406612764E-2
1.792078310E-1,-2.251017094E-2,1.793026924E-3,6.254100800E-2,6.649285993E-2
1.842284560E-1,-2.187377959E-2,1.094378531E-2,2.814197540E-2,3.728537850E-2
1.892490810E-1,-3.521817178E-2,-8.049443364E-3,3.196048737E-2,4.823469617E-2
1.942697060E-1,-4.816130549E-2,-7.850125432E-3,4.500102997E-2,6.637942839E-2
1.992903310E-1,-3.285265714E-2,-2.633538842E-2,6.237125397E-2,7.525306031E-2
2.043109560E-1,-2.735091746E-2,-1.638695598E-2,6.534385681E-2,7.270780312E-2
2.093315810E-1,-2.206534147E-2,-2.050429583E-3,6.828689575E-2,7.179264368E-2
2.143522060E-1,-3.092747182E-2,-1.141107082E-2,6.187057495E-2,7.010484359E-2
2.193728310E-1,-3.025101870E-2,-1.587651670E-2,6.032371521E-2,6.932631919E-2
2.243934560E-1,-1.554441452E-2,-2.496534586E-2,6.352233887E-2,6.999989180E-2
2.294140810E-1,-2.456844598E-2,-5.805805326E-3,4.798507690E-2,5.422069272E-2
2.344347060E-1,-2.409403771E-2,-1.126766205E-3,4.686832428E-2,5.271083452E-2
2.394553310E-1,-2.832304686E-2,-1.183420420E-3,4.580307007E-2,5.386572839E-2
2.444759560E-1,-4.329107702E-3,-5.920931697E-3,3.073787689E-2,3.160088102E-2
2.494965810E-1,-4.331380129E-3,-5.874082446E-3,3.475379944E-2,3.551186103E-2
2.545172060E-1,-1.834428310E-2,-1.144468784E-3,4.338645935E-2,4.711907667E-2
2.595378310E-1,-2.274724096E-2,-5.891233683E-3,5.185985565E-2,5.693494739E-2
2.645584560E-1,-2.701925486E-2,-5.802005529E-3,5.549240112E-2,6.199282204E-2
2.695790810E-1,-2.178002149E-2,-2.448704839E-2,5.438137054E-2,6.349266365E-2
2.745997060E-1,-3.073728085E-2,-1.470044255E-2,5.331420898E-2,6.327154435E-2
2.796203310E-1,-2.079990506E-2,-9.804025292E-3,3.350257874E-2,4.063468647E-2
2.846409560E-1,-1.570393145E-2,-3.051012754E-4,3.286933899E-2,3.642938368E-2
2.896615810E-1,-1.540765166E-2,-1.918058097E-2,4.635906219E-2,5.248288353E-2
2.946822060E-1,-2.462776750E-2,-1.091808081E-4,3.141212463E-2,3.991566643E-2
2.997028310E-1,-2.423443645E-2,-8.764863014E-5,4.025745392E-2,4.698912841E-2
3.047234560E-1,-9.741783142E-3,-4.770457745E-3,3.484725952E-2,3.649645328E-2
3.097440810E-1,-1.432614028E-2,-4.719808698E-3,3.424644470E-2,3.742103505E-2
3.147647060E-1,-8.091330528E-6,-1.413713396E-2,2.895736694E-2,3.222402399E-2
3.197853310E-1,-1.417949796E-2,1.418888569E-4,3.789138794E-2,4.045782464E-2
3.248059560E-1,-1.870196313E-2,5.760788918E-5,6.081867218E-2,6.362921993E-2
3.298265810E-1,-1.849737763E-2,-4.736959934E-3,4.570388794E-2,4.953218289E-2
3.348472060E-1,-2.296274155E-2,-1.422078907E-2,4.497623444E-2,5.246312996E-2
3.398678310E-1,-1.793617010E-2,-9.367525578E-3,3.013134003E-2,3.629537691E-2
3.448884560E-1,-1.770605892E-2,1.235157251E-4,2.023696899E-2,2.688967632E-2
3.499090810E-1,-2.220025659E-2,-9.393081069E-3,2.936077118E-2,3.798863315E-2
3.549297580E-1,-1.243030280E-2,-1.405285299E-2,2.420425415E-2,3.062419017E-2
3.599504350E-1,-3.121744096E-2,-9.211272001E-3,3.328418732E-2,4.655333798E-2
3.649711120E-1,-2.137365937E-2,-4.441857338E-3,3.280067444E-2,3.940111236E-2
3.699917890E-1,-2.111421525E-2,-4.461050034E-3,4.649066925E-2,5.125517906E-2
3.750124660E-1,-6.752021611E-3,-1.392325759E-2,4.111480713E-2,4.393033420E-2
3.800331430E-1,-1.147823781E-2,-1.381303370E-2,4.526519775E-2,4.869792573E-2
3.850538210E-1,-1.608973742E-2,-8.932292461E-3,3.519916534E-2,3.971960145E-2
3.900744980E-1,-1.119455695E-2,6.044954062E-4,2.999973297E-2,3.202604406E-2
3.950951750E-1,-1.109201461E-2,-1.366044581E-2,3.904819489E-2,4.282992052E-2
4.001158520E-1,-1.592695713E-3,-8.889570832E-3,3.380775452E-2,3.499321955E-2
4.051365290E-1,-1.617982984E-3,-8.856922388E-3,1.446247101E-2,1.703602098E-2
4.101572060E-1,-2.060353756E-2,-8.878111839E-3,3.318405151E-2,4.005630917E-2
4.151778830E-1,-2.511727810E-2,6.065815687E-4,2.330780029E-2,3.427096665E-2
4.201985600E-1,-2.012152970E-2,-4.264369607E-3,1.828575134E-2,2.752143724E-2
4.252192370E-1,-1.986836642E-2,-1.370207965E-2,1.805877686E-2,3.014329764E-2
4.302399140E-1,-1.021282375E-2,-8.836776018E-3,2.256870270E-2,2.630088821E-2
4.352605910E-1,-5.405858159E-3,-1.354435086E-2,3.175735474E-2,3.494570535E-2
4.402812680E-1,-1.011969894E-2,-4.003673792E-3,3.137874603E-2,3.321239848E-2
4.453019460E-1,-1.956314594E-2,6.921440363E-4,3.100967407E-2,3.667145523E-2
4.503226230E-1,-2.416677028E-2,-4.080444574E-3,2.591609955E-2,3.566969343E-2
4.553433000E-1,-2.393580973E-2,-4.065379500E-3,2.088451385E-2,3.202519659E-2
4.603639770E-1,-1.424189657E-2,-1.357011497E-2,2.538013458E-2,3.211122654E-2
4.653846540E-1,-9.394116700E-3,-8.766472340E-3,2.982902527E-2,3.247878099E-2
4.704053310E-1,-1.412414014E-2,7.174611092E-4,3.423309326E-2,3.703931370E-2
4.754260080E-1,1.915693283E-4,-4.058063030E-3,1.964950562E-2,2.006508523E-2
4.804466850E-1,-1.411882043E-2,-8.834213018E-3,2.417182922E-2,2.935407532E-2
4.854673620E-1,-9.224571288E-3,-8.770629764E-3,1.917362213E-2,2.301400546E-2
4.904880390E-1,-9.121686220E-3,-8.709177375E-3,3.318119049E-2,3.549713133E-2
4.955087160E-1,-1.854778826E-2,-4.014194012E-3,3.283023834E-2,3.792042659E-2
5.005293930E-1,-1.366216689E-2,1.005683839E-2,2.300834656E-2,2.858633964E-2
5.055500710E-1,-2.299540490E-2,-4.399552941E-3,2.750873566E-2,3.612305704E-2
5.105707480E-1,-8.589789271E-3,-1.396934688E-2,5.092430115E-2,5.349964093E-2
5.155914250E-1,9.301453829E-4,-9.171754122E-3,2.196884155E-2,2.382469818E-2
5.206121020E-1,-1.808815449E-2,-2.338515222E-2,2.648830414E-2,3.969479731E-2
5.256327790E-1,-1.795598119E-2,-1.375518739E-2,2.622509003E-2,3.463203413E-2
5.306534560E-1,-1.303371042E-2,-4.220992327E-3,2.122592926E-2,2.526330257E-2
5.356741330E-1,-3.471046686E-3,-1.843808591E-2,3.050327301E-2,3.581146243E-2
5.406948100E-1,-1.776339114E-2,-8.859679103E-3,1.124095917E-2,2.281208323E-2
5.457154870E-1,-8.207254112E-3,-1.370510459E-2,2.061748505E-2,2.608197848E-2
5.507361640E-1,-3.381833434E-3,-1.845437288E-2,2.516460419E-2,3.138881934E-2
5.557568410E-1,-8.140057325E-3,-8.929491043E-3,3.915882111E-2,4.098060046E-2
5.607775180E-1,-1.285493374E-2,-8.929997683E-3,4.353904724E-2,4.626708133E-2
5.657981960E-1,-8.040256798E-3,6.085336208E-4,3.365039825E-2,3.460296729E-2
5.708188730E-1,-1.270726323E-2,5.710721016E-4,3.334331512E-2,3.568721516E-2
5.758395500E-1,-1.738426089E-2,4.309564829E-4,3.304100037E-2,3.733772831E-2
5.808602270E-1,-7.784716785E-3,3.434419632E-4,2.325344086E-2,2.452432016E-2
5.858809040E-1,-2.200089395E-2,-4.489302635E-3,2.304649353E-2,3.217660698E-2
5.909015810E-1,-1.710849255E-2,-9.331747890E-3,2.284240723E-2,3.002594884E-2
5.959222580E-1,-2.713888884E-3,-9.333848953E-3,3.213596344E-2,3.357388979E-2
6.009429350E-1,-1.223172992E-2,-1.408420503E-2,2.711105347E-2,3.290880229E-2
6.059636120E-1,-1.217418909E-2,-4.552587867E-3,2.213096619E-2,2.566547488E-2
6.109842890E-1,-2.673394978E-3,-4.649057984E-3,3.143787384E-2,3.189201612E-2
6.160049660E-1,-1.694166660E-2,-1.418960094E-2,2.642440796E-2,3.444726663E-2
6.210256430E-1,-1.684749871E-2,-1.410330832E-2,1.195907593E-2,2.501521568E-2
6.260463210E-1,-2.145158499E-2,-4.572957754E-3,1.660728455E-2,2.751153106E-2
6.310669980E-1,-7.074333727E-3,-9.367078543E-3,2.596473694E-2,2.849484028E-2
6.360876230E-1,-7.061623037E-3,-1.412081718E-2,3.049564362E-2,3.434018459E-2
6.411082480E-1,2.446450293E-3,-4.590302706E-3,2.074337006E-2,2.138558859E-2
6.461288730E-1,-7.117964327E-3,-1.413278282E-2,2.056980133E-2,2.595221943E-2
6.511494980E-1,-7.104903460E-3,-1.884683967E-2,3.464317322E-2,4.007283954E-2
6.561701230E-1,-1.184044033E-2,-9.224295616E-3,2.485752106E-2,2.903756205E-2
6.611907480E-1,-1.653730124E-2,-9.231165051E-3,1.515197754E-2,2.425446689E-2
6.662113730E-1,-1.644650847E-2,-1.398646832E-2,2.927017212E-2,3.637103123E-2
6.712319980E-1,-1.635724306E-2,-1.870259643E-2,1.003170013E-2,2.679517720E-2
6.762526230E-1,-1.151943952E-2,-4.384979606E-3,9.946823120E-3,1.583871280E-2
6.812732480E-1,-1.146970689E-2,-4.379957914E-3,1.461219788E-2,1.908545347E-2
6.862938730E-1,-1.142038405E-2,-1.392376423E-2,3.348350525E-2,3.801896245E-2
6.913144980E-1,-6.622977555E-3,-1.389104128E-2,2.370643616E-2,2.826340345E-2
6.963351230E-1,-2.086031437E-2,-1.385903358E-2,2.350807190E-2,3.434901704E-2
7.013557480E-1,-1.598501205E-2,-4.330307245E-3,1.856231689E-2,2.487632971E-2
7.063763730E-1,-1.109851897E-2,3.705322742E-4,1.365852356E-2,1.760311573E-2
7.113969980E-1,-1.504264772E-3,5.032181740E-3,1.354408264E-2,1.452679731E-2
7.164176230E-1,-1.103574783E-2,1.579970121E-4,2.292728424E-2,2.544549186E-2
7.214382480E-1,-6.189748645E-3,7.335841656E-5,2.273559570E-2,2.356322732E-2
7.264588730E-1,-2.043070644E-2,4.737481475E-3,1.779651642E-2,2.750588106E-2
7.314794980E-1,-1.314252615E-3,-4.883185029E-3,1.289844513E-2,1.385433660E-2
7.365001230E-1,-6.099589169E-3,-9.675174952E-3,1.278972626E-2,1.715782900E-2
7.415207480E-1,-1.347295940E-3,-1.442679763E-2,1.743030548E-2,2.266634610E-2
7.465413730E-1,-1.087932289E-2,-1.444071531E-4,2.203273773E-2,2.457279088E-2
7.515619980E-1,-1.558420807E-2,-1.442065835E-2,2.184867859E-2,3.046617279E-2
7.565826230E-1,-1.070028543E-2,-9.583517909E-3,2.166557312E-2,2.599494148E-2
7.616032480E-1,-5.962230265E-3,-2.383334935E-2,7.239341736E-3,2.561220021E-2
7.666238730E-1,-2.025689930E-2,-9.421199560E-3,1.192760468E-2,2.532525861E-2
7.716444980E-1,-1.063811779E-2,-4.626154900E-3,2.132511139E-2,2.427614539E-2
7.766651230E-1,8.397497237E-3,4.825636744E-3,2.589511871E-2,2.764709574E-2
7.816857480E-1,3.532744944E-3,-4.794925451E-3,3.042697906E-2,3.100439730E-2
7.867063730E-1,-1.291476190E-3,-1.433530450E-2,1.592731476E-2,2.146737574E-2
7.917269980E-1,-1.082474738E-2,-9.499311447E-3,2.054309845E-2,2.508846284E-2
7.967476230E-1,-1.558113843E-2,-9.503498673E-3,2.512073517E-2,3.105059898E-2
8.017682480E-1,-1.074982435E-2,-6.289780140E-5,3.440666199E-2,3.604692870E-2
8.067888730E-1,-1.210294664E-3,-1.444348693E-2,1.512432098E-2,2.094813149E-2
8.118094980E-1,-1.074347645E-2,-9.657979012E-3,2.449417114E-2,2.843700520E-2
8.168301230E-1,-2.024982125E-2,-9.661287069E-3,2.429008484E-2,3.306665919E-2
8.218507480E-1,-2.017994225E-2,-4.916071892E-3,2.408790588E-2,3.180605354E-2
8.268713730E-1,-5.812555552E-3,-2.099573612E-4,2.388668060E-2,2.458461703E-2
8.318919980E-1,-1.530740410E-2,-9.736746550E-3,1.893901825E-2,2.622607988E-2
8.369126230E-1,-9.813904762E-4,-9.687572718E-3,1.403236389E-2,1.707979592E-2
8.419332480E-1,-1.531682163E-2,-4.889890552E-3,1.866436005E-2,2.463482069E-2
8.469538730E-1,-1.053878665E-2,-9.629189968E-3,1.376056671E-2,1.982777143E-2
8.519744980E-1,-1.524652541E-2,-9.580910206E-3,8.897781372E-3,2.008534019E-2
8.569951750E-1,-1.516575366E-2,-4.835963249E-3,2.306842804E-2,2.802746861E-2
8.620158520E-1,-5.641244352E-3,-1.309514046E-4,1.812744141E-2,1.898538696E-2
8.670365290E-1,-1.038901508E-2,-1.614093781E-4,1.797676086E-2,2.076346836E-2
8.720572060E-1,-1.034872979E-2,-9.740456939E-3,1.782608032E-2,2.279784747E-2
8.770778830E-1,-1.030877978E-2,-1.938343048E-4,2.242565155E-2,2.468234915E-2
8.820985600E-1,-5.521431565E-3,-2.760142088E-4,2.223777771E-2,2.291464920E-2
8.871192370E-1,-1.032204181E-2,-1.460260153E-2,1.255512238E-2,2.184975095E-2
8.921399140E-1,3.911346197E-3,-1.456430554E-2,2.669620514E-2,3.066113165E-2
8.971605910E-1,-1.046564430E-2,-2.872040868E-2,7.479667664E-3,3.146962049E-2
9.021812680E-1,-1.517400146E-2,-1.906789839E-2,1.216506958E-2,2.723644593E-2
9.072019460E-1,-1.034533232E-2,-4.746899009E-3,2.155971527E-2,2.437991537E-2
9.122226230E-1,-1.030541211E-2,-4.842579365E-3,1.662921906E-2,2.015398274E-2
9.172433000E-1,-1.496402174E-2,-9.634956717E-3,-2.504348755E-3,1.797292687E-2
9.222639770E-1,-1.013787836E-2,-1.414716244E-4,2.264022827E-3,1.038857022E-2
9.272846540E-1,-1.490081102E-2,4.524394870E-3,2.244949341E-3,1.573353474E-2
9.323053310E-1,-1.007518917E-2,-9.842619300E-3,6.974220276E-3,1.571707161E-2
9.373260080E-1,-5.289033055E-3,-9.844005108E-3,6.915092468E-3,1.314141587E-2
9.423466850E-1,-1.003974676E-2,-1.459386945E-2,6.856918335E-3,1.899460106E-2
9.473673620E-1,-1.000238210E-2,-3.101527691E-4,2.050399780E-3,1.021508598E-2
9.523880390E-1,-1.471460611E-2,-3.913789988E-4,2.577495575E-2,2.968200051E-2
9.574087160E-1,-5.141273141E-3,-5.220025778E-3,1.606178284E-2,1.765395781E-2
9.624293930E-1,-9.841375053E-3,-5.259931087E-3,6.429672241E-3,1.287867319E-2
9.674500710E-1,-5.058690906E-3,-1.004882157E-2,1.112365723E-2,1.582102774E-2
9.724707480E-1,-5.011744797E-3,-9.997054935E-3,1.103019714E-2,1.570744862E-2
9.774914250E-1,-4.965193570E-3,-1.474605501E-2,1.568603516E-2,2.209413914E-2
9.825121020E-1,-1.697763801E-4,-5.261436105E-3,1.080513000E-2,1.201924991E-2
9.875327790E-1,-9.764254093E-3,-1.485024393E-2,1.216888428E-3,1.781435433E-2
9.925534560E-1,-9.781025350E-3,-1.000955701E-2,5.955696106E-3,1.520953663E-2
9.975741330E-1,-4.997320473E-3,-1.000954211E-2,1.065349579E-2,1.544866071E-2
1.002594810E0,-1.449897885E-2,-5.312889814E-3,5.814552307E-3,1.650018801E-2
1.007615487E0,-1.447629184E-2,-1.010051370E-2,5.765914917E-3,1.856957665E-2
1.012636164E0,-1.445455849E-2,-1.479680836E-2,1.046657562E-2,2.318251505E-2
1.017656841E0,-4.936009645E-3,-5.208492279E-3,5.630493164E-3,9.121131307E-3
1.022677518E0,-4.942700267E-3,-5.008280277E-4,1.982784271E-2,2.044075491E-2
1.027698196E0,-4.948578775E-3,-5.328997970E-3,2.441024780E-2,2.547050940E-2
1.032718873E0,-2.577528358E-4,-1.481355727E-2,5.212783813E-3,1.570608260E-2
1.037739550E0,-1.460001618E-2,-9.973585606E-3,1.466655731E-2,2.297260946E-2
1.042760227E0,-1.452542096E-2,-9.974300861E-3,1.929187775E-2,2.612759229E-2
1.047780904E0,-4.953674972E-3,4.322752357E-3,1.913070679E-2,2.022891559E-2
1.052801581E0,-4.959456623E-3,-4.937499762E-4,1.897144318E-2,1.961518940E-2
1.057822258E0,-9.713687003E-3,-5.216151476E-4,9.316444397E-3,1.346937021E-2
1.062842935E0,-1.437646151E-2,4.147395492E-3,1.398658752E-2,2.048189848E-2
1.067863612E0,-1.430372149E-2,3.977149725E-3,1.386833191E-2,2.031612163E-2
1.072884289E0,-1.897932589E-2,3.860592842E-3,1.375198364E-2,2.375365324E-2
1.077904966E0,-1.406788081E-2,-9.520500898E-4,1.363658905E-2,1.961550995E-2
1.082925643E0,-4.501469433E-3,-1.028358936E-3,8.773803711E-3,9.914654846E-3
1.087946321E0,-9.260281920E-3,3.696307540E-3,1.344871521E-2,1.674166812E-2
1.092966998E0,-4.481688142E-3,-1.061196625E-2,1.333618164E-2,1.762251676E-2
1.097987675E0,5.006343126E-3,-1.060695946E-2,8.475303650E-3,1.447072329E-2
1.103008352E0,-1.402460039E-2,-5.853921175E-3,2.264881134E-2,2.727501539E-2
1.108029029E0,-9.207054973E-3,-5.837529898E-3,1.296329498E-2,1.693793474E-2
1.113049706E0,-1.397777349E-2,-1.062121987E-2,1.285552979E-2,2.175897767E-2
1.118070383E0,2.852752805E-4,-2.011355758E-2,1.749706268E-2,2.666052856E-2
1.123091060E0,4.984334111E-3,-5.784288049E-3,1.260185242E-2,1.473459396E-2
1.128111737E0,9.696833789E-3,-1.531650126E-2,7.747650146E-3,1.971420501E-2
1.133132414E0,1.238062978E-4,-5.775719881E-3,7.681846619E-3,9.611713459E-3
1.138153039E0,-9.421288967E-3,-1.062929630E-3,1.711368561E-2,1.956447649E-2
1.143173664E0,1.071393490E-4,-1.538342237E-2,2.171897888E-2,2.661531902E-2
1.148194289E0,-9.437061846E-3,-1.059016585E-2,1.678848267E-2,2.197869194E-2
1.153214914E0,-9.456604719E-3,-1.053349674E-2,2.139663696E-2,2.565536980E-2
1.158235539E0,-9.475976229E-3,-5.676940084E-3,2.121925354E-2,2.392234301E-2
1.163256164E0,-9.495951235E-3,-5.661621690E-3,1.154518127E-2,1.598493856E-2
1.168276789E0,-9.463898838E-3,-9.497851133E-4,1.951217651E-3,9.709517150E-3
1.173297414E0,-4.734724760E-3,-5.773827434E-3,1.143169403E-2,1.365424221E-2
1.178318039E0,-4.793457687E-3,-1.055765152E-2,1.608467102E-2,1.982820930E-2
1.183338664E0,-9.549088776E-3,-1.999866962E-2,2.069950104E-2,3.032492748E-2
1.188359289E0,-1.884251833E-5,-1.041845977E-2,1.102924347E-2,1.517197649E-2
1.193379914E0,-1.431126893E-2,-1.041549444E-2,1.093673706E-2,2.080642113E-2
1.198400539E0,-9.490579367E-3,-1.516105235E-2,-3.400802612E-3,1.820697842E-2
1.203421164E0,-9.458571672E-3,-1.511856914E-2,1.375198364E-3,1.788649997E-2
1.208441789E0,-9.428352118E-3,-1.512913406E-2,1.361846924E-3,1.787845486E-2
1.213462414E0,-4.648365080E-3,-1.988729835E-2,-3.399848938E-3,2.070436925E-2
1.218483039E0,-1.890221238E-2,-1.510879397E-2,1.562023163E-2,2.880209931E-2
1.223503664E0,2.029836178E-4,3.979533911E-3,5.992889404E-3,7.196708686E-3
1.228524289E0,-9.342014790E-3,-8.855760098E-4,5.942344666E-3,1.110715739E-2
1.233544914E0,-1.405899227E-2,-5.762025714E-3,1.142501831E-3,1.523684726E-2
1.238565539E0,-4.491150379E-3,-1.059781015E-2,5.879402161E-3,1.292483584E-2
1.243586164E0,-4.500806332E-3,-1.534184813E-2,1.532649994E-2,2.214793810E-2
1.248606789E0,1.443250477E-2,-5.800455809E-3,5.702018738E-3,1.656669850E-2
1.253627414E0,1.965463161E-5,-5.835980177E-3,9.050369263E-4,5.905771987E-3
1.258648039E0,-4.722699523E-3,-1.069992781E-3,8.964538574E-4,4.924673071E-3
1.263668664E0,-4.729665816E-3,-1.144528389E-3,1.038455963E-2,1.146816300E-2
1.268689289E0,-9.486585855E-3,-5.915910006E-3,5.549430847E-3,1.248156581E-2
1.273709914E0,-4.706874490E-3,-1.069937646E-2,5.502700806E-3,1.291940557E-2
1.278730539E0,-4.715487361E-3,-1.074637473E-2,7.066726685E-4,1.175669074E-2
1.283751164E0,-4.724793136E-3,-2.029038966E-2,6.990432739E-4,2.084495728E-2
1.288771789E0,-4.733264446E-3,-1.065669954E-2,1.019001007E-2,1.548564957E-2
1.293792414E0,6.824731827E-6,-1.534879208E-2,6.084442139E-4,1.536084858E-2
1.298813039E0,-4.789575934E-3,-1.530516148E-2,-4.145622253E-3,1.656424430E-2
1.303833664E0,4.700258374E-3,-1.520961523E-2,1.013469696E-2,1.887158994E-2
1.308854289E0,-1.345053315E-4,-1.041823626E-2,5.521774292E-4,1.043372600E-2
1.313874914E0,-9.677462280E-3,-1.041527092E-2,1.004409790E-2,1.740732740E-2
1.318895539E0,-1.444277167E-2,-1.041150093E-2,5.211830139E-3,1.855144681E-2
1.323916164E0,-9.672865272E-3,-1.515710354E-2,4.196166992E-4,1.798549939E-2
1.328936789E0,-4.943482578E-3,-1.036658883E-2,5.164146423E-3,1.259256099E-2
1.333957414E0,-4.951655865E-3,-8.683204651E-4,9.868621826E-3,1.107531367E-2
1.338978039E0,-4.957482219E-3,-9.449571371E-4,5.037307739E-3,7.130500908E-3
1.343998664E0,-9.659118950E-3,-5.717173219E-3,2.460479736E-4,1.122698482E-2
1.349019289E0,-4.877217114E-3,-1.050190628E-2,9.739875793E-3,1.513084474E-2
1.354039966E0,-9.632155299E-3,-1.524676383E-2,-9.336471558E-3,2.030792761E-2
1.359060643E0,-4.852004349E-3,-5.707412958E-3,9.734153748E-3,1.228292547E-2
1.364081321E0,-4.909768701E-3,-1.049180329E-2,9.653091431E-3,1.507865840E-2
1.369101998E0,4.582576454E-3,-9.903907776E-4,4.823684692E-3,6.726723932E-3
1.374122675E0,-2.504512668E-4,-1.531109214E-2,4.782676697E-3,1.604263896E-2
1.379143352E0,4.402697086E-3,-1.051802933E-2,1.424026489E-2,1.824274724E-2
1.384164029E0,-5.229957402E-3,-1.051425934E-2,1.412200928E-2,1.836663415E-2
1.389184706E0,-5.233459175E-3,-1.525901258E-2,1.875209808E-2,2.473596051E-2
1.394205383E0,-9.985432029E-3,-1.046723127E-2,1.384639740E-2,2.002484717E-2
1.399226060E0,-9.949304163E-3,-5.715385079E-3,1.373004913E-2,1.789325373E-2
1.404246737E0,-9.914241731E-3,-5.752041936E-3,1.361465454E-2,1.779710633E-2
1.409267414E0,4.366025329E-3,-2.003389597E-2,-7.448196411E-4,2.051764902E-2
1.414288091E0,-5.213700235E-3,-1.050528884E-2,1.825332642E-2,2.169625979E-2
1.419308768E0,-5.217343569E-3,-1.530200243E-2,1.335048676E-2,2.096681781E-2
1.424329446E0,-5.169078708E-3,-1.050986350E-2,8.489608765E-3,1.446547830E-2
1.429350123E0,-5.172334611E-3,-1.520235837E-2,1.316738129E-2,2.076643145E-2
1.434370800E0,-9.923309088E-3,-1.041021943E-2,8.308410645E-3,1.660946776E-2
1.439391477E0,-1.463621855E-2,-1.040735841E-2,1.298713684E-2,2.216298098E-2
1.444412154E0,-9.812831879E-3,-5.656018853E-3,1.287841797E-2,1.715038974E-2
1.449432831E0,-5.029655993E-3,-1.044127345E-2,-1.475334167E-3,1.168307501E-2
1.454453508E0,-9.783335030E-3,3.807350993E-3,-6.212234497E-3,1.219841889E-2
1.459474185E0,-9.800784290E-3,-1.055376232E-2,3.336906433E-3,1.478418805E-2
1.464494862E0,-9.818084538E-3,-1.104578376E-3,8.056640625E-3,1.274850327E-2
1.469515539E0,-5.034111440E-3,-1.178845763E-3,-1.508712769E-3,5.385923277E-3
1.474536216E0,-2.907589078E-4,-5.949541926E-3,-1.496315002E-3,6.141705664E-3
1.479556893E0,-5.031287670E-3,-1.073193550E-2,-1.484870911E-3,1.194542326E-2
1.484577571E0,-5.086824298E-3,-1.547405124E-2,8.024215698E-3,1.815792061E-2
1.489598248E0,-1.458853483E-2,-1.068049669E-2,3.208160400E-3,1.836275174E-2
1.494618925E0,-9.816676378E-3,-5.926474929E-3,7.929801941E-3,1.394173587E-2
1.499639602E0,-1.458161324E-2,-5.960568786E-3,7.863998413E-3,1.760665488E-2
1.504660279E0,-9.810574353E-3,-1.069140434E-2,1.254653931E-2,1.918252185E-2
1.509680956E0,-9.828567505E-3,-5.834341049E-3,7.694244385E-3,1.377830437E-2
1.514701633E0,-9.793758392E-3,-1.056621969E-2,7.630348206E-3,1.630291126E-2
1.519722310E0,-9.811125696E-3,-1.531055570E-2,7.566452026E-3,1.969574826E-2
1.524742987E0,-9.777218103E-3,-1.996390522E-2,1.225185394E-2,2.538226606E-2
1.529763664E0,-1.449134201E-2,-5.635932088E-3,1.214885712E-2,1.973214263E-2
1.534784341E0,-4.920676351E-3,-8.724629879E-4,-2.198219299E-3,5.459525208E-3
1.539805018E0,-4.926763475E-3,-5.697593093E-3,2.567291260E-3,7.957798050E-3
1.544825696E0,-1.442905515E-2,-5.733594298E-3,-2.203941345E-3,1.568212657E-2
1.549846373E0,-4.858151078E-3,-5.821168423E-3,1.205825806E-2,1.424391874E-2
1.554867050E0,-1.436252892E-2,-1.545773447E-2,2.457618713E-3,2.124296781E-2
1.559887727E0,-9.541429579E-3,-1.546470821E-2,7.184028625E-3,1.953986555E-2
1.564908404E0,-1.895413548E-2,-5.922734737E-3,2.374649048E-3,1.999942491E-2
1.569929081E0,-9.345524013E-3,-1.070535183E-2,1.659965515E-2,2.185158868E-2
1.574949758E0,-9.315505624E-3,-6.003841758E-3,2.213478088E-3,1.130151521E-2
1.579970435E0,-1.403273642E-2,-1.340672374E-3,2.193450928E-3,1.426626513E-2
1.584991112E0,-4.465140402E-3,-6.213381886E-3,1.167011261E-2,1.395475265E-2
1.590011789E0,-9.222015738E-3,-6.244659424E-3,-2.673149109E-3,1.145369249E-2
1.595032466E0,-1.394002140E-2,-1.582498848E-2,-2.653121948E-3,2.125543491E-2
1.600053143E0,-9.121693671E-3,-1.107999682E-2,1.636123657E-2,2.176377006E-2
1.605073821E0,-2.333828062E-2,3.173947334E-3,1.147556305E-2,2.619995861E-2
1.610094498E0,-4.196897149E-3,-6.485298276E-3,6.629943848E-3,1.017984257E-2
1.615115175E0,-4.209026694E-3,-1.818522811E-3,-7.672309875E-3,8.937967876E-3
1.620135852E0,-9.021438658E-3,-6.635785103E-3,6.637573242E-3,1.301834774E-2
1.625156529E0,-9.045250714E-3,-1.915886998E-3,1.133060455E-2,1.462428744E-2
1.630177154E0,-4.319615662E-3,-1.148042083E-2,-3.008842468E-3,1.262981690E-2
1.635197779E0,-9.079217911E-3,-1.919746399E-3,1.764297485E-3,9.446182812E-3
1.640218404E0,3.944411874E-4,-1.143276691E-2,1.749992371E-3,1.157264950E-2
1.645239029E0,-1.395408809E-2,-1.142181456E-2,-3.012657166E-3,1.828251967E-2
1.650259654E0,-1.388490200E-2,-6.662040949E-3,-7.737159729E-3,1.723475947E-2
1.655280279E0,-9.067028761E-3,-1.149038970E-2,-7.674217224E-3,1.652675637E-2
1.660300904E0,5.206927657E-3,-1.153042912E-2,-7.612228394E-3,1.476512487E-2
1.665321529E0,-9.129822254E-3,-6.822049618E-3,1.946449280E-3,1.156212265E-2
1.670342154E0,-9.100086987E-3,-6.848677993E-3,1.929283142E-3,1.155154132E-2
1.675362779E0,-4.322104156E-3,-2.126574516E-3,1.912117004E-3,5.182576092E-3
1.680383404E0,-4.333190620E-3,-6.941258907E-3,6.643295288E-3,1.053997099E-2
1.685404029E0,-1.389382780E-2,-6.967723370E-3,1.133632660E-2,1.923798120E-2
1.690424654E0,-1.852250844E-2,-1.649096608E-2,-3.005027771E-3,2.498130247E-2
1.695445279E0,-1.366676390E-2,-1.168894768E-2,6.516456604E-3,1.912788906E-2
1.700465904E0,-8.852221072E-3,-6.979241967E-3,1.711845398E-3,1.140184419E-2
1.705486529E0,-4.077814519E-3,-1.175390184E-2,1.696586609E-3,1.255632055E-2
1.710507154E0,-1.833719015E-2,-6.939873099E-3,-3.066062927E-3,1.984477571E-2
1.715527779E0,-1.828337461E-2,-1.171444356E-2,1.708030701E-3,2.178135312E-2
1.720548404E0,-8.680358529E-3,-6.951823831E-3,1.118946075E-2,1.577594722E-2
1.725569029E0,-3.854736686E-3,-2.177387476E-3,6.346702576E-3,7.738258507E-3
1.730589654E0,-8.617460728E-3,-1.168784499E-2,1.544952393E-3,1.460319239E-2
1.735610279E0,-3.844253719E-3,-2.111946046E-2,-3.216743469E-3,2.170615893E-2
1.740630904E0,8.891746402E-4,-1.627886295E-2,2.055168152E-2,2.623287296E-2
1.745651529E0,-8.714221418E-3,-1.153050363E-2,6.134033203E-3,1.570084495E-2
1.750672154E0,-8.740603924E-3,-1.626680791E-2,1.083183289E-2,2.140877858E-2
1.755692779E0,-4.018269479E-3,-1.151855290E-2,2.023792267E-2,2.363042667E-2
1.760713404E0,-1.352889091E-2,-1.625496149E-2,1.057147980E-2,2.364341023E-2
1.765734029E0,-8.714742959E-3,-6.654515862E-3,9.860992432E-4,1.100916518E-2
1.770754654E0,-3.991112113E-3,-6.682142615E-3,-3.770828247E-3,8.648650270E-3
1.775775279E0,-4.005707800E-3,-1.620776951E-2,-8.488655090E-3,1.872951555E-2
1.780795904E0,-8.767925203E-3,-1.911103725E-3,1.078605652E-3,9.038374852E-3
1.785816529E0,-1.823972166E-2,-6.728008389E-3,1.056575775E-2,2.212665315E-2
1.790837154E0,-8.637823164E-3,-2.100133896E-2,9.794235229E-4,2.272944121E-2
1.795857779E0,5.632556975E-3,-1.616172493E-2,5.719184875E-3,1.804539072E-2
1.800878404E0,-4.060775042E-3,-1.616202295E-2,5.670547485E-3,1.760272673E-2
1.805899029E0,6.752014160E-4,-1.136232913E-2,-3.874778748E-3,1.202382345E-2
1.810919654E0,7.277652621E-4,-1.615111530E-2,-3.845214844E-3,1.661847902E-2
1.815940279E0,6.745979190E-4,-1.854926348E-3,-8.563041687E-3,8.787577427E-3
1.820960904E0,5.319245160E-3,-1.147186756E-2,-3.744125366E-3,1.318774390E-2
1.825981529E0,-4.269190133E-3,-1.151207089E-2,5.782127380E-3,1.357154220E-2
1.831002154E0,-9.029962122E-3,-6.751954556E-3,-3.764152527E-3,1.188688145E-2
1.836022779E0,-4.253320396E-3,-6.831482053E-3,-3.734588623E-3,8.871698463E-3
1.841043404E0,5.232781172E-3,-1.640692353E-2,1.043319702E-3,1.725275788E-2
1.846064081E0,-1.390308142E-2,-1.635368168E-2,-3.713607788E-3,2.178369712E-2
1.851084758E0,-2.333131433E-2,-1.160471141E-2,-3.684997559E-3,2.631727118E-2
1.856105435E0,-4.189245403E-3,-6.894901395E-3,-3.656387329E-3,8.857686526E-3
1.861126112E0,-9.001076221E-3,-6.920933723E-3,-3.625869751E-3,1.191912867E-2
1.866146789E0,5.245730281E-4,-1.639184356E-2,1.152992249E-3,1.644071480E-2
1.871167466E0,-1.852013916E-2,-2.108724415E-2,-1.310348511E-2,3.097367822E-2
1.876188143E0,-8.916653693E-3,-1.149882376E-2,5.998611450E-3,1.573890086E-2
1.881208821E0,-2.313570678E-2,-1.148732007E-2,1.198768616E-3,2.585839316E-2
1.886229498E0,-1.349226385E-2,-2.097208798E-2,1.188278198E-3,2.496560961E-2
1.891250175E0,-2.287052572E-2,-1.618377864E-2,5.925178528E-3,2.863709794E-2
1.896270852E0,-8.481539786E-3,-1.613281667E-2,5.874633789E-3,1.914982018E-2
1.901291529E0,1.090921462E-3,-1.608228683E-2,1.057338715E-2,1.927761850E-2
1.906312206E0,1.034721732E-3,-1.123178005E-2,-3.760337830E-3,1.188964561E-2
1.911332883E0,-8.517250419E-3,-1.597017050E-2,1.018524170E-3,1.812808020E-2
1.916353560E0,-8.441485465E-3,-1.117248833E-2,1.050567627E-2,1.750578208E-2
1.921374237E0,-1.316600293E-2,-1.665875316E-3,1.041698456E-2,1.687105038E-2
1.926394914E0,-1.310188323E-2,-1.683175564E-3,-1.341247559E-2,1.882516734E-2
1.931415591E0,-8.290544152E-3,-6.501153111E-3,-3.804206848E-3,1.120134384E-2
1.936436268E0,-1.301632077E-2,-6.530463696E-3,-3.773689270E-3,1.504367950E-2
1.941456946E0,-8.205696940E-3,-1.811027527E-3,5.753517151E-3,1.018411717E-2
1.946477623E0,-3.435932100E-3,-1.137684286E-2,1.045322418E-2,1.582744700E-2
1.951498300E0,-1.300406456E-2,-6.617844105E-3,8.687973022E-4,1.461698890E-2
1.956518977E0,-8.195050061E-3,-1.139549911E-2,5.609512329E-3,1.511564997E-2
1.961539654E0,6.071634591E-3,-3.037843108E-2,8.134841919E-4,3.098992704E-2
1.966560331E0,5.974680185E-3,-1.596327126E-2,5.554199219E-3,1.792685030E-2
1.971581008E0,1.129269600E-3,-1.586225629E-2,7.591247559E-4,1.592051176E-2
1.976601685E0,-3.676503897E-3,-1.586627960E-2,-8.746147156E-3,1.848649776E-2
1.981622362E0,-1.318997890E-2,-1.572459936E-3,5.571365356E-3,1.440445367E-2
1.986643039E0,-8.378662169E-3,-1.643255353E-3,1.027202606E-2,1.335727470E-2
1.991663716E0,-3.607451916E-3,-6.461977959E-3,-4.059791565E-3,8.441135943E-3
1.996684393E0,-1.317415386E-2,-1.743942499E-3,5.471229553E-3,1.437129146E-2
2.001705071E0,-1.311072707E-2,-6.509512663E-3,-1.356792450E-2,1.995879492E-2
2.006725748E0,-3.550820053E-3,-1.123535633E-2,-8.706092834E-3,1.465051560E-2
2.011746425E0,-1.781383902E-2,-1.127752662E-2,1.510715485E-2,2.593726267E-2
2.016767102E0,-8.162841201E-3,-6.518542767E-3,7.352828979E-4,1.047205888E-2
2.021787779E0,1.355066895E-3,-1.604512334E-2,-4.020690918E-3,1.659663052E-2
2.026808456E0,-3.451831639E-3,-1.124681532E-2,1.025772095E-2,1.560855008E-2
2.031829133E0,1.279070973E-3,-1.118469238E-2,1.492118835E-2,1.869158175E-2
2.036849810E0,-3.578335047E-3,-1.117497683E-2,5.299568176E-3,1.287517035E-2
2.041870487E0,-1.314453036E-2,-1.116575301E-2,5.255699158E-3,1.802983894E-2
2.046891164E0,-3.636993468E-3,-6.408110261E-3,-4.284858704E-3,8.523591538E-3
2.051911841E0,-8.402287960E-3,-6.438612938E-3,4.987716675E-4,1.059730875E-2
2.056932518E0,-8.379377425E-3,-1.116545498E-2,4.949569702E-4,1.396876277E-2
2.061953196E0,-1.305251569E-2,-1.115590334E-2,-4.258155823E-3,1.769051260E-2
2.066973873E0,-8.243098855E-3,-1.114724576E-2,-4.223823547E-3,1.449311741E-2
2.071994550E0,-3.473021090E-3,-1.119014621E-2,1.480388641E-2,1.887952067E-2
2.077015227E0,-3.491185606E-3,-1.118080318E-2,9.930610657E-3,1.535629398E-2
2.082035904E0,-3.561101854E-3,-1.117153466E-2,5.099296570E-3,1.278622143E-2
2.087056581E0,-3.630429506E-3,-1.591083407E-2,3.080368042E-4,1.632266970E-2
2.092077258E0,5.849719048E-3,-6.417065859E-3,-4.445075989E-3,9.754826893E-3
2.097097935E0,1.050236076E-2,-1.124790311E-2,5.086898804E-3,1.620775880E-2
2.102118612E0,-3.929667175E-3,-1.128998399E-2,5.043983459E-3,1.297489082E-2
2.107139289E0,-8.692525327E-3,-6.531313062E-3,5.001068115E-3,1.196782057E-2
2.112159966E0,-8.667193353E-3,-1.130928099E-2,4.958152771E-3,1.508652896E-2
2.117180643E0,-3.892824054E-3,-1.135043800E-2,1.668930054E-4,1.200059895E-2
2.122201321E0,5.538359284E-3,-6.590843201E-3,-9.331703186E-3,1.269619321E-2
2.127221946E0,-1.354815811E-2,-1.611639559E-2,-4.506111145E-3,2.153127569E-2
2.132242571E0,-8.785754442E-3,-6.620913744E-3,-1.396656036E-2,1.777894227E-2
2.137263196E0,5.485855043E-3,-6.649643183E-3,3.948211670E-4,8.629498465E-3
2.142283821E0,5.393028259E-3,-6.678134203E-3,5.139350891E-3,1.000475676E-2
2.147304446E0,-8.944526315E-3,-1.145488024E-2,-4.401206970E-3,1.518517221E-2
2.152325071E0,-8.917100728E-3,-1.624372602E-2,9.879112244E-3,2.099928996E-2
2.157345696E0,-1.838690788E-2,-1.149567962E-2,2.975463867E-4,2.168680624E-2
2.162366321E0,-4.035294056E-3,-6.787195802E-3,5.042076111E-3,9.368679548E-3
2.167386946E0,-8.797273040E-3,-1.636344194E-2,9.746551514E-3,2.097974050E-2
2.172407571E0,7.266700268E-4,-2.116978168E-3,1.668930054E-4,2.244437384E-3
2.177428196E0,-1.832049340E-2,-2.235159278E-3,1.640319824E-4,1.845706699E-2
2.182448821E0,-3.969430923E-3,-1.174554229E-2,1.630783081E-4,1.239922336E-2
2.187469446E0,-8.732713759E-3,-2.117708325E-2,1.621246338E-4,2.290754088E-2
2.192490071E0,-8.707046509E-3,-1.158750057E-2,1.440525055E-2,2.043511859E-2
2.197510696E0,8.153915405E-4,-6.826356053E-3,-4.710197449E-3,8.333664280E-3
2.202531321E0,7.614865899E-4,-6.853371859E-3,7.629394531E-5,6.895968998E-3
2.207551946E0,-8.787453175E-3,-1.632443070E-2,7.534027100E-5,1.853947268E-2
2.212572571E0,-8.812487125E-3,-1.621998847E-2,7.438659668E-5,1.845950943E-2
2.217593196E0,-8.785404265E-3,-6.619423628E-3,4.822731018E-3,1.201077981E-2
2.222613821E0,-1.350781322E-2,-1.139667630E-2,9.530067444E-3,2.007902971E-2
2.227634446E0,-1.819085330E-2,-1.138561964E-2,4.701614380E-3,2.196917513E-2
2.232655071E0,-1.333787292E-2,-1.142655313E-2,4.660606384E-3,1.817102700E-2
2.237675696E0,-3.776073456E-3,-6.718233228E-3,9.367942810E-3,1.213061173E-2
2.242696321E0,-1.808912307E-2,-1.154655218E-2,-2.079010010E-4,2.146118505E-2
2.247716946E0,-8.541144431E-3,-1.143085957E-2,4.543304443E-3,1.497522333E-2
2.252737571E0,-8.465930820E-3,-6.619527936E-3,1.400184631E-2,1.765054772E-2
2.257758196E0,-3.693997860E-3,-1.139678061E-2,-3.614425659E-4,1.198594465E-2
2.262778821E0,-3.709569573E-3,-6.636813283E-3,9.137153625E-3,1.188678987E-2
2.267799446E0,-8.526168764E-3,-6.665423512E-3,1.380920410E-2,1.754472976E-2
2.272820071E0,-8.554130793E-3,-6.693795323E-3,1.369380951E-2,1.747857169E-2
2.277840696E0,-8.530706167E-3,-2.025738358E-3,4.080772400E-3,9.671053044E-3
2.282861321E0,-1.800449193E-2,-6.841704249E-3,4.045486450E-3,1.968086906E-2
2.287881946E0,-8.404567838E-3,-6.868615746E-3,4.011154175E-3,1.157168962E-2
2.292902571E0,1.115344465E-3,-1.164379716E-2,-7.715225220E-4,1.172251051E-2
2.297923196E0,1.110091805E-3,-1.163110137E-2,1.347923279E-2,1.783828858E-2
2.302943821E0,5.802236497E-3,-1.167000830E-2,8.616447449E-3,1.562364262E-2
2.307964446E0,-8.538730443E-3,-2.159669995E-3,1.329231262E-2,1.594552184E-2
2.312985071E0,9.822994471E-4,-2.121959627E-2,3.684043884E-3,2.155941459E-2
2.318005696E0,-1.801508665E-2,-6.881177425E-3,-5.845069885E-3,2.015090052E-2
2.323026321E0,-1.316282898E-2,-2.106919885E-3,1.319789886E-2,1.875856372E-2
2.328046946E0,-8.350990713E-3,-1.166987419E-2,1.783561707E-2,2.289179429E-2
2.333067571E0,-1.312817633E-2,-1.640462875E-2,3.441810608E-3,2.129100558E-2
2.338088196E0,-1.306513697E-2,-1.160293818E-2,-1.336097717E-3,1.752458660E-2
2.343108821E0,-3.506369889E-3,-2.145066857E-3,-1.082420349E-2,1.157839898E-2
2.348129498E0,1.224979758E-3,-6.959199905E-3,8.258819580E-3,1.086918302E-2
2.353150175E0,-8.277423680E-3,-1.178553700E-2,-6.057739258E-3,1.562404654E-2
2.358170852E0,-1.295216382E-2,-1.182314754E-2,3.487586975E-3,1.788039787E-2
2.363191529E0,-1.763983816E-2,-2.311527729E-3,3.458023071E-3,1.812360268E-2
2.368212206E0,-3.243297338E-3,-2.324685454E-3,-1.319885254E-3,4.203003351E-3
2.373232883E0,-3.263384104E-3,-7.137745619E-3,1.293563843E-2,1.513036119E-2
2.378253560E0,-8.031047881E-3,-1.191025972E-2,-6.167411804E-3,1.563294550E-2
2.383274237E0,-1.275975257E-2,-7.146432996E-3,8.128166199E-3,1.673170272E-2
2.388294914E0,-1.744827628E-2,-7.170379162E-3,-1.437187195E-3,1.891883161E-2
2.393315591E0,-2.679431438E-2,-2.445623279E-3,3.322601318E-3,2.711007259E-2
2.398336268E0,-1.242457330E-2,-2.150316536E-2,8.043289185E-3,2.610460962E-2
2.403356946E0,-7.671549916E-3,-2.140788734E-2,-1.521110535E-3,2.279175499E-2
2.408377623E0,-1.715174317E-2,-1.651300490E-2,-1.100540161E-2,2.622938218E-2
2.413398300E0,-7.558919489E-3,-1.645931602E-2,3.331184387E-3,1.841583930E-2
2.418418977E0,-1.698813587E-2,-2.160578966E-3,1.279926300E-2,2.137956958E-2
2.423439654E0,-7.344014943E-3,-2.277985215E-3,7.942199707E-3,1.105451529E-2
2.428460331E0,-7.329933345E-3,-2.133692801E-2,-6.370544434E-3,2.344304281E-2
2.433481008E0,-2.515561879E-3,-1.649452746E-2,3.178596497E-3,1.698531611E-2
2.438501685E0,2.206780016E-3,-1.169249415E-2,-1.597404480E-3,1.200566527E-2
2.443522362E0,-2.606466413E-3,-6.930083036E-3,-6.333351135E-3,9.743256881E-3
2.448543039E0,-1.212886721E-2,-2.600215375E-2,3.214836121E-3,2.887138014E-2
2.453563716E0,-1.682340354E-2,-1.637238264E-2,-1.105880737E-2,2.594954798E-2
2.458584393E0,-2.147806436E-2,-1.631945372E-2,-1.096725464E-2,2.911893701E-2
2.463605071E0,-7.099941373E-3,-1.969560981E-3,1.761531830E-2,1.909418175E-2
2.468625748E0,-7.086381316E-3,2.764135599E-3,-1.525878906E-3,7.757934790E-3
2.473646425E0,-7.073692977E-3,2.657592297E-3,3.234863281E-3,8.219748755E-3
2.478667102E0,7.184393704E-3,-1.169356704E-2,3.207206726E-3,1.409401284E-2
2.483687779E0,2.328895032E-3,-1.168003678E-2,1.267623901E-2,1.739350588E-2
2.488708456E0,-1.198312640E-2,-6.918132305E-3,7.821083069E-3,1.589418804E-2
2.493729133E0,-1.192963123E-2,-1.644098759E-2,7.755279541E-3,2.174319514E-2
2.498749810E0,-1.182541996E-2,-6.890907884E-3,2.941131592E-3,1.399912225E-2
2.503770487E0,-1.172132790E-2,-1.171740890E-2,-1.833915710E-3,1.667484470E-2
2.508791164E0,-2.173759043E-3,-2.114877105E-2,-6.567001343E-3,2.225132023E-2
2.513811841E0,-2.254672348E-3,-1.145562530E-2,-1.126003265E-2,1.622045726E-2
2.518832518E0,-2.283751965E-3,-1.144449413E-2,-6.418228149E-3,1.331861935E-2
2.523853196E0,2.384744585E-3,-1.148493588E-2,-1.617431641E-3,1.184089709E-2
2.528873873E0,-7.179237902E-3,-1.622164249E-2,-1.605033875E-3,1.781177352E-2
2.533894550E0,-1.191503555E-2,-6.621479988E-3,7.905006409E-3,1.575757582E-2
2.538915227E0,1.662738621E-2,-2.089613676E-2,1.733493805E-2,3.183737711E-2
2.543935904E0,6.892807782E-3,-2.080592513E-2,2.944946289E-3,2.211492773E-2
2.548956581E0,-1.225767285E-2,-2.071647346E-2,2.920150757E-3,2.424768229E-2
2.553977258E0,-7.505290210E-3,-1.587884128E-2,7.644653320E-3,1.915483505E-2
2.558997935E0,-2.741366625E-3,-6.385371089E-3,7.578849792E-3,1.028236447E-2
2.564018612E0,1.983612776E-3,-1.591266692E-2,-6.731033325E-3,1.739121898E-2
2.569039289E0,-1.232553273E-2,-6.366997957E-3,-1.927375793E-3,1.400614856E-2
2.574059966E0,-1.696652174E-2,-1.114636660E-2,2.836227417E-3,2.049752508E-2
2.579080643E0,-7.376000285E-3,-1.113781333E-2,-1.936912537E-3,1.349844051E-2
2.584101321E0,-7.362402976E-3,-6.328925490E-3,-1.920700073E-3,9.896937112E-3
2.589121998E0,-1.214858890E-2,-6.360098720E-3,7.592201233E-3,1.567420133E-2
2.594142675E0,-7.397122681E-3,-1.113910973E-2,-6.716728210E-3,1.496367693E-2
2.599163352E0,-2.632588148E-3,-6.380915642E-3,1.233196259E-2,1.413237086E-2
2.604184029E0,-2.709686756E-3,-1.590865850E-2,2.732276917E-3,1.636744192E-2
2.609204706E0,-2.734221518E-3,-1.586002111E-2,1.220512390E-2,2.019854664E-2
2.614225383E0,-1.225556433E-2,-1.566290855E-3,2.605438232E-3,1.262697242E-2
2.619246060E0,-1.214939356E-2,3.059014678E-3,-2.166748047E-3,1.271456377E-2
2.624266737E0,-7.346764207E-3,-6.651222706E-3,2.597808838E-3,1.024511193E-2
2.629287362E0,-1.208042353E-2,-1.617631316E-2,-2.173423767E-3,2.030599693E-2
2.634307987E0,-7.331028581E-3,-1.612584293E-2,-2.155303955E-3,1.784466658E-2
2.639328612E0,-2.620473504E-3,-1.607537270E-2,7.359504700E-3,1.787307467E-2
2.644349237E0,-7.445409894E-3,-1.122452319E-2,7.298469543E-3,1.531965101E-2
2.649369862E0,-1.217824221E-2,-1.116259396E-2,7.237434387E-3,1.803589598E-2
2.654390487E0,-1.212313026E-2,-1.110118628E-2,7.177352905E-3,1.793658325E-2
2.659411112E0,-7.320716977E-3,-1.584109664E-2,2.367973328E-3,1.761080741E-2
2.664431737E0,-1.675268263E-2,-1.104491949E-2,-2.401351929E-3,2.020913439E-2
2.669452362E0,-1.655636728E-2,-1.539796591E-3,1.186180115E-2,2.042514620E-2
2.674472987E0,-6.968513131E-3,-1.585638523E-2,7.013320923E-3,1.868613920E-2
2.679493612E0,-1.645532995E-2,-1.563087106E-3,2.205848694E-3,1.667593757E-2
2.684514237E0,2.629421651E-3,-1.593099535E-2,2.185821533E-3,1.629381130E-2
2.689534862E0,-6.936602294E-3,-1.118557155E-2,2.165794373E-3,1.333882032E-2
2.694555487E0,2.571821213E-3,-1.122778654E-2,2.145767212E-3,1.171673043E-2
2.699576112E0,-1.174148172E-2,-1.596623659E-2,-2.621650696E-3,1.999140206E-2
2.704596737E0,-2.193003893E-3,-1.111629605E-2,-2.599716187E-3,1.162496573E-2
2.709617362E0,-2.221852541E-3,-2.060458064E-2,-2.578735352E-3,2.088385137E-2
2.714637987E0,-2.301618457E-3,-2.051639557E-2,2.191543579E-3,2.076108855E-2
2.719658612E0,-7.077306509E-3,-6.183445454E-3,2.172470093E-3,9.645874320E-3
2.724679237E0,-2.316959202E-3,-1.566091180E-2,1.165103912E-2,1.965652998E-2
2.729699862E0,2.403721213E-3,-2.511133254E-2,2.105045319E-2,3.285541777E-2
2.734720487E0,-7.159672678E-3,-1.295015216E-3,1.878738403E-3,7.514495009E-3
2.739741112E0,-2.398639917E-3,-1.091706753E-2,1.861572266E-3,1.133142922E-2
2.744761737E0,-7.225438952E-3,-1.565811038E-2,1.846313477E-3,1.734336364E-2
2.749782362E0,-7.211595774E-3,-2.035965025E-2,-2.918243408E-3,2.179538063E-2
2.754802987E0,-1.194638014E-2,-1.077650487E-2,6.602287292E-3,1.739078070E-2
2.759823612E0,-2.448111773E-3,-1.077021658E-2,-7.698059082E-3,1.346294656E-2
2.764844237E0,-2.526000142E-3,3.533422947E-3,-7.634162903E-3,8.783290822E-3
2.769864862E0,-2.552837133E-3,-1.328855753E-3,6.673812866E-3,7.267916704E-3
2.774885487E0,2.169810236E-3,-1.559528708E-2,1.870155334E-3,1.585618292E-2
2.779906112E0,6.853871047E-3,-2.504585683E-2,-7.643699646E-3,2.706836968E-2
2.784926737E0,2.001121640E-3,-1.547598839E-2,1.914978027E-3,1.572189064E-2
2.789947362E0,-7.559671998E-3,-1.068246365E-2,-2.850532532E-3,1.339362557E-2
2.794967987E0,-7.543042302E-3,-1.072888076E-2,-7.576942444E-3,1.514649882E-2
2.799988612E0,-2.829976380E-3,-6.078332663E-3,1.147842407E-2,1.329319801E-2
2.805009237E0,-2.853520215E-3,-2.035711706E-2,-2.863883972E-3,2.075467716E-2
2.810029862E0,-2.876110375E-3,-2.027098835E-2,6.655693054E-3,2.152866065E-2
2.815050487E0,6.545819342E-3,-1.548941433E-2,-2.897262573E-3,1.706352360E-2
2.820071112E0,-7.801353931E-3,-1.069577038E-2,-7.622718811E-3,1.527633691E-2
2.825091737E0,-7.783465087E-3,-1.069056988E-2,-2.811431885E-3,1.351942167E-2
2.830112362E0,-3.017231822E-3,-1.068541408E-2,-2.788543701E-3,1.144804515E-2
2.835132987E0,1.120629162E-2,-1.542879641E-2,1.622772217E-2,2.503932302E-2
2.840153612E0,-1.272864640E-2,-5.887165666E-3,6.595611572E-3,1.549771760E-2
2.845174237E0,-1.741819084E-2,-1.547095180E-2,-7.706642151E-3,2.453846072E-2
2.850194914E0,-3.074660897E-3,-5.980893970E-3,-2.895355225E-3,7.321728907E-3
2.855215591E0,6.400845945E-3,-1.076348126E-2,-7.620811462E-3,1.465947219E-2
2.860236268E0,1.552626491E-3,-1.260295510E-3,-1.230716705E-2,1.246857468E-2
2.865256946E0,-1.744951308E-2,-6.082236767E-3,-7.456779480E-3,1.992693331E-2
2.870277623E0,-7.854215801E-3,3.381520510E-3,6.850242615E-3,1.095669707E-2
2.875298300E0,-3.034718335E-3,-1.478672028E-3,2.043724060E-3,3.946238002E-3
2.880318977E0,-3.004632890E-3,-1.109920442E-2,1.152133942E-2,1.627763556E-2
2.885339654E0,-7.775969803E-3,-2.063997090E-2,6.674766541E-3,2.304401470E-2
2.890360331E0,-7.810212672E-3,-2.535232902E-2,1.870155334E-3,2.659393708E-2
2.895381008E0,1.705490053E-3,-1.097907126E-2,-7.643699646E-3,1.348609826E-2
2.900401685E0,-3.103591502E-3,-6.274536252E-3,-1.233005524E-2,1.417858764E-2
2.905422362E0,-1.737187058E-2,-1.580397785E-2,-1.222801208E-2,2.647776204E-2
2.910443039E0,-1.727499068E-2,-1.575660706E-2,-1.212692261E-2,2.633929044E-2
2.915463716E0,-7.681913674E-3,-1.090922952E-2,6.968498230E-3,1.505267597E-2
2.920484393E0,1.831971109E-3,-1.559883356E-2,1.165866852E-2,1.956027296E-2
2.925505071E0,-1.722441614E-2,-2.024938166E-2,-7.432937622E-3,2.760374124E-2
2.930525748E0,-7.630996406E-3,-1.536415517E-2,-1.686763763E-2,2.405839915E-2
2.935546425E0,1.881703734E-3,-1.052004099E-2,-1.197814941E-2,1.605266753E-2
2.940567102E0,6.515495479E-3,-5.767807364E-3,-7.129669189E-3,1.124950958E-2
2.945587779E0,6.465233862E-3,-1.055568457E-3,2.426147461E-3,6.985675713E-3
2.950608456E0,-3.080852330E-3,3.669708967E-3,2.405166626E-3,5.361272375E-3
2.955629133E0,-1.265197992E-2,-5.890294909E-3,-1.660919189E-2,2.169408734E-2
2.960649810E0,-1.259367168E-2,-5.873233080E-3,-2.224922180E-3,1.407287149E-2
2.965670487E0,-7.838495076E-3,-1.535288990E-2,-6.955146790E-3,1.858836464E-2
2.970691164E0,6.373293698E-3,-5.759984255E-3,-2.148628235E-3,8.855105559E-3
2.975711841E0,1.525312662E-3,-1.047000289E-3,-2.131462097E-3,2.822395967E-3
2.980732518E0,1.465477049E-3,-1.536771655E-2,-2.114295959E-3,1.558154621E-2
2.985753196E0,-3.341600299E-3,-1.527126133E-2,-6.845474243E-3,1.706570341E-2
2.990773873E0,-1.290903240E-2,-1.517561078E-2,2.708435059E-3,2.010666309E-2
2.995794550E0,-1.284781843E-2,-5.635678768E-3,-6.812095642E-3,1.559589564E-2
3.000815227E0,-8.038602769E-3,-2.466623485E-2,-6.755828857E-3,2.680827297E-2
3.005835904E0,-8.069887757E-3,-1.024678349E-2,1.229476929E-2,1.792431344E-2
3.010856581E0,-8.101671934E-3,-1.499381661E-2,2.695083618E-3,1.725442264E-2
3.015877258E0,-1.752636582E-2,-1.964940131E-2,-6.825447083E-3,2.720035291E-2
3.020897935E0,1.619242132E-3,-1.002025604E-2,2.727508545E-3,1.051031774E-2
3.025918612E0,-3.189109266E-3,-1.946537197E-2,-2.043724060E-3,1.983047987E-2
3.030939289E0,1.539602876E-3,-1.943859458E-2,2.719879150E-3,1.968824723E-2
3.035959966E0,6.228923798E-3,-9.915038943E-3,2.695083618E-3,1.201544692E-2
3.040980643E0,-1.286412776E-2,-5.219757557E-3,-2.078056335E-3,1.403744884E-2
3.046001321E0,-3.359727561E-3,8.984908462E-3,-2.060890198E-3,9.811402436E-3
3.051021998E0,1.370400190E-3,4.078015685E-3,2.703666687E-3,5.081143785E-3
3.056042675E0,1.312620938E-3,-5.536496639E-3,7.429122925E-3,9.357758075E-3
3.061063352E0,-3.493174911E-3,-1.032237709E-2,-6.878852844E-3,1.288690638E-2
3.066084029E0,5.985818803E-3,-1.512070000E-2,-2.075195312E-3,1.639426823E-2
3.071104706E0,-1.310443878E-2,-1.507821679E-2,-6.807327271E-3,2.110494354E-2
3.076125383E0,-1.309426874E-2,-1.028800011E-2,-6.751060486E-3,1.796885187E-2
3.081146060E0,-2.263156325E-2,-5.536884069E-3,7.550239563E-3,2.449185288E-2
3.086166737E0,-3.496088088E-3,-1.982018352E-2,-2.010345459E-3,2.022631443E-2
3.091187414E0,-8.262567222E-3,-1.024194062E-2,2.754211426E-3,1.344444291E-2
3.096208091E0,-1.298934221E-2,-6.916075945E-4,-6.765365601E-3,1.466190656E-2
3.101228768E0,-1.292821765E-2,-1.026678085E-2,7.535934448E-3,1.814761441E-2
3.106249446E0,-1.761609316E-2,-1.031707227E-2,7.471084595E-3,2.173903916E-2
3.111270123E0,-8.019410074E-3,-1.506352425E-2,2.659797668E-3,1.727122533E-2
3.116290800E0,-1.749746501E-2,-1.507423818E-2,7.384300232E-3,2.424709939E-2
3.121311477E0,-1.739877462E-2,-1.033596694E-2,-1.167297363E-2,2.336253164E-2
3.126332102E0,-2.210055292E-2,-1.508185267E-2,-6.827354431E-3,2.761357434E-2
3.131352727E0,-1.251766086E-2,-1.029118896E-2,-6.770133972E-3,1.756232096E-2
3.136373352E0,-2.200860530E-2,-1.028895378E-2,-1.965522766E-3,2.437426013E-2
3.141393977E0,-2.187231928E-2,-1.503564417E-2,-1.950263977E-3,2.661338904E-2
3.146414602E0,-7.492423058E-3,-2.449168265E-2,2.813339233E-3,2.576613669E-2
3.151435227E0,-7.477872074E-3,-1.012641191E-2,-6.708145142E-3,1.426401067E-2
3.156455852E0,-7.409244776E-3,-1.492555439E-2,2.842903137E-3,1.690417642E-2
3.161476477E0,-1.214236766E-2,-1.488469541E-2,-6.678581238E-3,2.033702774E-2
3.166497102E0,-7.391698658E-3,-1.959308982E-2,1.237106323E-2,2.432220350E-2
3.171517727E0,2.067863941E-3,-5.197376013E-4,2.771377563E-3,3.496672998E-3
3.176538352E0,-2.796888351E-3,-5.993396044E-4,-6.749153137E-3,7.330270151E-3
3.181558977E0,6.676308811E-3,-5.426794291E-3,-1.619052887E-2,1.833456901E-2
3.186579602E0,-7.671184838E-3,-1.016166806E-2,-1.810073853E-3,1.286012994E-2
3.191600227E0,-7.706284523E-3,-1.485750079E-2,-6.543159485E-3,1.797067297E-2
3.196620852E0,-1.243769377E-2,-1.481762528E-2,-1.741409302E-3,1.942397364E-2
3.201641477E0,-7.632650435E-3,-1.477807760E-2,-6.476402283E-3,1.784916572E-2
3.206662102E0,-2.867676318E-3,-9.990364313E-3,3.073692322E-3,1.083875136E-2
3.211682727E0,-1.708449423E-2,-4.940330982E-4,-1.701354980E-3,1.717610610E-2
3.216703352E0,-7.441088557E-3,-1.007124782E-2,-1.688003540E-3,1.263523595E-2
3.221723977E0,-1.212203503E-2,-1.007084548E-2,-6.422996521E-3,1.701824157E-2
3.226744602E0,-7.318861783E-3,-1.481892169E-2,-6.370544434E-3,1.771298998E-2
3.231765227E0,-2.556495368E-3,-1.003083587E-2,-1.106643677E-2,1.515319635E-2
3.236785852E0,-1.213122159E-2,-5.334571004E-3,8.018493652E-3,1.548936492E-2
3.241806477E0,-1.207800955E-2,-5.426347256E-3,-1.104450226E-2,1.724252271E-2
3.246827102E0,-7.275201380E-3,-1.496163011E-2,-1.095294952E-2,1.991848473E-2
3.251847727E0,-2.564348280E-3,-6.749480963E-4,3.383636475E-3,4.298887394E-3
3.256868352E0,2.159923315E-3,-1.499792933E-2,-1.394271851E-3,1.521667332E-2
3.261888977E0,-7.453337312E-3,-6.071478128E-4,-6.130218506E-3,9.669562786E-3
3.266909602E0,-7.490254939E-3,-6.341040134E-4,-1.330375671E-3,7.633865755E-3
3.271930227E0,-2.726458013E-3,-1.020973921E-2,-1.319885254E-3,1.064962183E-2
3.276950852E0,-2.750851214E-3,-1.015667617E-2,-1.555442810E-2,1.877938995E-2
3.281971477E0,-2.775043249E-3,-5.407467484E-3,-1.180648804E-3,6.191566944E-3
3.286992102E0,-2.798274159E-3,-1.019440591E-2,8.325576782E-3,1.345628028E-2
3.292012727E0,-2.873972058E-3,-1.494187117E-2,-5.989074707E-3,1.635201043E-2
3.297033352E0,-7.697537541E-3,-5.404278636E-3,1.305484772E-2,1.608997703E-2
3.302053977E0,-7.679745555E-3,-1.024314761E-2,-6.050109863E-3,1.415995742E-2
3.307074602E0,-1.241137087E-2,-5.493208766E-3,3.496170044E-3,1.401572954E-2
3.312095227E0,-1.235505939E-2,-1.027984917E-2,8.214950562E-3,1.805015801E-2
3.317115852E0,1.946285367E-3,-1.502659917E-2,3.396987915E-3,1.552823996E-2
3.322136477E0,-7.614798844E-3,-1.023720205E-2,3.367424011E-3,1.319564366E-2
3.327157102E0,-2.849966288E-3,-1.498430967E-2,-6.158828735E-3,1.644940776E-2
3.332177727E0,1.824773848E-3,-2.443954349E-2,-1.085567474E-2,2.680423025E-2
3.337198352E0,-7.786445320E-3,-1.007430255E-2,-6.016731262E-3,1.408266160E-2
3.342218977E0,-3.020182252E-3,-1.482276618E-2,8.277893066E-3,1.724411238E-2
3.347239602E0,-2.990216017E-3,-2.428016067E-2,3.459930420E-3,2.470705794E-2
3.352260279E0,-3.012418747E-3,-9.864345193E-3,3.431320190E-3,1.086986343E-2
3.357280956E0,-3.033667803E-3,-5.117148161E-3,-6.094932556E-3,8.516839115E-3
3.362301633E0,1.641839743E-3,-5.106106400E-3,-1.554107666E-2,1.644059075E-2
3.367322310E0,-7.915191352E-3,-1.459215581E-2,-1.066303253E-2,1.973021866E-2
3.372342987E0,-3.147862852E-3,-1.445066929E-2,-1.076698303E-3,1.482869390E-2
3.377363664E0,-1.736157387E-2,-1.436185837E-2,-1.069068909E-3,2.255726339E-2
3.382384341E0,-2.676024288E-2,-1.432567835E-2,-5.809783936E-3,3.090451825E-2
3.387405018E0,-1.708737016E-2,-9.541720152E-3,-1.013755798E-3,1.959720243E-2
3.392425696E0,-1.699209958E-2,-4.745736718E-3,8.491516113E-3,1.957956361E-2
3.397446373E0,-7.503665984E-3,-9.486287832E-3,-1.075744629E-3,1.214297684E-2
3.402467050E0,1.957595348E-3,-1.898774505E-2,-5.815505981E-3,1.995461729E-2
3.407487727E0,-2.853572369E-3,-9.467929602E-3,-5.768775940E-3,1.144828992E-2
3.412508404E0,-2.876915038E-3,-4.724457860E-3,8.523941040E-3,1.016143263E-2
3.417529081E0,6.597712636E-3,-9.517088532E-3,3.703117371E-3,1.215803703E-2
3.422549758E0,6.549037993E-3,-9.468972683E-3,-1.077651978E-3,1.156341974E-2
3.427570435E0,1.699596643E-3,-9.473562241E-3,3.679275513E-3,1.030408068E-2
3.432591112E0,-1.255527884E-2,-9.426638484E-3,-1.100540161E-3,1.573873338E-2
3.437611789E0,-1.249777526E-2,-4.683509469E-3,-1.091957092E-3,1.339111712E-2
3.442632466E0,-1.719000936E-2,-3.220140934E-5,-5.833625793E-3,1.815292396E-2
3.447653143E0,-7.596880198E-3,-1.436135173E-2,-1.037597656E-3,1.627997608E-2
3.452673821E0,-2.831429243E-3,-1.907369494E-2,-5.778312683E-3,2.012987153E-2
3.457694498E0,-2.854958177E-3,-1.899866760E-2,-9.822845459E-4,1.923707461E-2
3.462715175E0,-2.878293395E-3,-1.422765851E-2,-9.756088257E-4,1.454863059E-2
3.467735852E0,-2.902962267E-3,-1.424573362E-2,-9.689331055E-4,1.457075659E-2
3.472756529E0,6.570346653E-3,-1.421134174E-2,3.787040710E-3,1.610817701E-2
3.477777206E0,1.666523516E-3,-9.481057525E-3,-9.937286377E-4,9.677564209E-3
3.482797883E0,-1.263999194E-2,-4.737466574E-3,8.510589600E-3,1.595754120E-2
3.487818560E0,-7.885172963E-3,-4.781901836E-3,-5.805969238E-3,1.089733071E-2
3.492839237E0,-1.266776025E-2,-4.826366901E-3,-1.050567627E-2,1.715037029E-2
3.497859914E0,-3.164976835E-3,-4.922375083E-3,1.332378387E-2,1.455232186E-2
3.502880591E0,-3.186486661E-3,-4.965677857E-3,3.714561462E-3,6.972060003E-3
3.507901268E0,1.103921235E-2,-5.007803440E-3,3.683090210E-3,1.266915380E-2
3.512921946E0,-3.345407546E-3,-9.798482060E-3,3.651618958E-3,1.097890356E-2
3.517942623E0,-3.416560590E-3,-1.454924047E-2,3.621101379E-3,1.537743996E-2
3.522963300E0,-8.234843612E-3,-9.763002396E-3,8.339881897E-3,1.525393376E-2
3.527983977E0,-8.265249431E-3,-1.451405883E-2,8.270263672E-3,1.863785162E-2
3.533004654E0,-3.494232893E-3,-1.447661221E-2,3.452301025E-3,1.528726094E-2
3.538025331E0,-8.259966969E-3,-2.458840609E-4,8.170127869E-3,1.162060681E-2
3.543046008E0,-3.541670740E-3,-5.076259375E-3,8.102416992E-3,1.019612681E-2
3.548066685E0,-1.785592735E-2,-3.689527512E-4,3.286361694E-3,1.815958262E-2
3.553087362E0,-1.305689663E-2,4.299119115E-3,-1.573467255E-2,2.089365681E-2
3.558108039E0,-1.299597323E-2,-5.318030715E-3,-2.035331726E-2,2.472719746E-2
3.563128716E0,-1.298592985E-2,-1.010571420E-2,-1.068687439E-2,1.962062990E-2
3.568149393E0,-8.176319301E-3,-5.356922746E-3,1.789188385E-2,2.038794561E-2
3.573170071E0,-8.154541254E-3,-1.489277184E-2,8.244514465E-3,1.887493616E-2
3.578190748E0,-8.132942021E-3,-1.490408182E-2,8.173942566E-3,1.884382493E-2
3.583211425E0,-8.112281561E-3,-5.664080381E-4,8.106231689E-3,1.148220024E-2
3.588232102E0,-1.283954829E-2,-5.393698812E-3,-1.459121704E-3,1.400267915E-2
3.593252779E0,-3.282666206E-3,-1.023307443E-2,3.299713135E-3,1.124187780E-2
3.598273456E0,-1.279943436E-2,-1.972872019E-2,-1.477241516E-3,2.356332241E-2
3.603294133E0,-3.242120147E-3,-1.489931345E-2,8.030891418E-3,1.723357483E-2
3.608314810E0,-3.313370049E-3,-1.491056383E-2,-1.533508301E-3,1.535105802E-2
3.613335487E0,-8.080609143E-3,-1.486980915E-2,3.227233887E-3,1.722853757E-2
3.618356164E0,-3.259219229E-3,-1.952601969E-2,-1.548767090E-3,1.985665215E-2
3.623376789E0,-3.330327570E-3,-1.939490438E-2,-1.535415649E-3,1.973856374E-2
3.628397414E0,1.399561763E-3,-9.819775820E-3,3.225326538E-3,1.043022059E-2
3.633418039E0,-3.407716751E-3,-5.021467805E-3,3.198623657E-3,6.859946477E-3
3.638438664E0,-8.226081729E-3,-1.456011832E-2,7.920265198E-3,1.850394733E-2
3.643459289E0,-3.403477371E-3,-1.921890676E-2,-6.392478943E-3,2.053810659E-2
3.648479914E0,-3.422237933E-3,-4.949077964E-3,3.155708313E-3,6.794378567E-3
3.653500539E0,-3.440074623E-3,-4.991337657E-3,3.128051758E-3,6.821456796E-3
3.658521164E0,-8.206255734E-3,-9.781748056E-3,3.101348877E-3,1.313939089E-2
3.663541789E0,-1.288159192E-2,-1.453265548E-2,-1.117134094E-2,2.240384663E-2
3.668562414E0,-1.276946068E-2,-1.929588616E-2,-6.331443787E-3,2.398911272E-2
3.673583039E0,6.284609437E-3,-1.447008550E-2,-1.577663422E-2,2.231102592E-2
3.678603664E0,1.436606050E-3,-9.633034468E-3,-6.148338318E-3,1.151786673E-2
3.683624289E0,-8.119478822E-3,-1.902987063E-2,1.289749146E-2,2.438046756E-2
3.688644914E0,6.093889475E-3,-9.406700730E-3,8.041381836E-3,1.379439485E-2
3.693665539E0,-3.552936018E-3,-2.355392277E-2,7.975578308E-3,2.512012105E-2
3.698686164E0,-1.306822896E-2,-9.196460247E-3,3.159523010E-3,1.628913978E-2
3.703706789E0,-1.300644875E-2,-9.203746915E-3,7.881164551E-3,1.777609127E-2
3.708727414E0,1.301087439E-3,-1.395906508E-2,3.066062927E-3,1.435092569E-2
3.713748039E0,-3.453463316E-3,-9.126260877E-3,-1.595401764E-2,1.870148992E-2
3.718768664E0,6.025195122E-3,-4.333734512E-3,-1.575469971E-3,7.587248296E-3
3.723789289E0,1.179352403E-3,-4.329636693E-3,-6.310462952E-3,7.743291848E-3
3.728809914E0,1.122400165E-3,-4.325583577E-3,3.238677979E-3,5.519011729E-3
3.733830539E0,1.065924764E-3,-9.070053697E-3,-6.285667419E-3,1.108655422E-2
3.738851164E0,-8.487075567E-3,-1.382687688E-2,3.262519836E-3,1.654862567E-2
3.743871789E0,-1.801238954E-2,-1.379556954E-2,3.234863281E-3,2.291785889E-2
3.748892414E0,-8.411638439E-3,-1.851262152E-2,-6.290435791E-3,2.128479268E-2
3.753913039E0,-8.388668299E-3,-1.369376481E-2,8.006095886E-3,1.794398288E-2
3.758933664E0,-1.311440021E-2,-8.915066719E-3,3.190040588E-3,1.617535985E-2
3.763954289E0,-8.304499090E-3,-8.925095201E-3,3.162384033E-3,1.259455050E-2
3.768974914E0,-3.534689546E-3,-4.186540842E-3,1.738071442E-2,1.822389607E-2
3.773995539E0,5.892738700E-3,-1.373258233E-2,-1.758575439E-3,1.504662003E-2
3.779016164E0,-8.448995650E-3,-8.953586221E-3,-1.745223999E-3,1.243374604E-2
3.784036789E0,-8.477620780E-3,4.822015762E-4,7.765769958E-3,1.150694380E-2
3.789057414E0,-8.453331888E-3,-4.353851080E-3,2.951622009E-3,9.956249882E-3
3.794078039E0,-3.628067672E-3,-9.149163961E-3,7.674217224E-3,1.248053229E-2
3.799098664E0,-3.644190729E-3,-1.390492916E-2,2.861022949E-3,1.465648776E-2
3.804119289E0,-3.660947084E-3,-9.176403284E-3,-1.913070679E-3,1.006323756E-2
3.809139914E0,-3.676794469E-3,-9.235367179E-3,-1.898765564E-3,1.012008573E-2
3.814160539E0,-1.318951696E-2,-2.823592722E-2,-1.883506775E-3,3.122144362E-2
3.819181164E0,-1.787522435E-2,-1.853565872E-2,2.881050110E-3,2.591128595E-2
3.824201789E0,-1.777262241E-2,-2.326512337E-2,-1.139068604E-2,3.141464310E-2
3.829222414E0,-8.121952415E-3,-1.360584795E-2,-1.799583435E-3,1.594752991E-2
3.834243039E0,-3.352127969E-3,-8.827492595E-3,1.245975494E-2,1.563351786E-2
3.839263664E0,-1.286832243E-2,-1.358635724E-2,-1.890182495E-3,1.880839214E-2
3.844284289E0,-1.280821115E-2,-2.310599387E-2,2.872467041E-3,2.657420351E-2
3.849304966E0,-1.274859905E-2,-4.003375769E-3,1.234436035E-2,1.819167468E-2
3.854325643E0,-7.992893457E-3,-8.802443743E-3,2.744674683E-3,1.220256534E-2
3.859346321E0,-1.272115856E-2,-1.830960810E-2,-2.027511597E-3,2.238705937E-2
3.864366998E0,-1.266150922E-2,-4.046961665E-3,-1.150989532E-2,1.758321372E-2
3.869387675E0,-3.105349839E-3,-1.359374821E-2,-6.666183472E-3,1.545545826E-2
3.874408352E0,1.621901989E-3,-1.361630857E-2,-1.864433289E-3,1.383873320E-2
3.879429029E0,-7.883816957E-3,-1.358677447E-2,7.647514343E-3,1.747110431E-2
3.884449706E0,-7.865242660E-3,-8.808985353E-3,7.582664490E-3,1.403413930E-2
3.889470383E0,-7.846057415E-3,-2.306459844E-2,2.770423889E-3,2.451961596E-2
3.894491060E0,-1.262822747E-2,-1.820783317E-2,7.495880127E-3,2.339199728E-2
3.899511737E0,-1.737052947E-2,-1.339152455E-2,-6.812095642E-3,2.296677755E-2
3.904532414E0,-7.775135338E-3,8.820593357E-4,-1.625347137E-2,1.803901577E-2
3.909553091E0,-2.200296521E-2,-8.706226945E-3,-1.611900330E-2,2.863129639E-2
3.914573768E0,-1.236896962E-2,-1.821419597E-2,-1.123714447E-2,2.471885434E-2
3.919594446E0,-2.816013992E-3,-3.900840878E-3,-1.646995544E-3,5.085183250E-3
3.924615123E0,-1.233667880E-2,-3.952264786E-3,3.114700317E-3,1.332349049E-2
3.929635800E0,-1.707986742E-2,-2.299642563E-2,-1.659393311E-3,2.869339731E-2
3.934656477E0,-1.223539561E-2,-1.344320178E-2,3.101348877E-3,1.844025338E-2
3.939677154E0,-1.692905277E-2,5.526974797E-3,-1.674652100E-3,1.788699913E-2
3.944697831E0,-7.390007377E-3,-4.100009799E-3,-1.115798950E-2,1.399725041E-2
3.949718508E0,2.069532871E-3,-4.201680422E-3,3.179550171E-3,5.660973764E-3
3.954739185E0,-7.595650852E-3,4.460066557E-4,3.151893616E-3,8.235731125E-3
3.959759862E0,-2.882890403E-3,-9.190544486E-3,-1.624107361E-3,9.768054553E-3
3.964780539E0,6.539106369E-3,-4.501298070E-3,3.136634827E-3,8.535811295E-3
3.969801216E0,1.689746976E-3,-4.547312856E-3,1.260662079E-2,1.350778245E-2
3.974821893E0,6.377823651E-3,-1.408992708E-2,3.004074097E-3,1.575522582E-2
3.979842571E0,-3.220215440E-3,-1.405684650E-2,-1.770019531E-3,1.452920129E-2
3.984863248E0,-7.988996804E-3,-1.402364671E-2,2.992630005E-3,1.641470595E-2
3.989883925E0,-1.741463691E-2,-9.242221713E-3,1.246356964E-2,2.332442516E-2
3.994904602E0,-3.019228578E-3,-1.399762928E-2,2.861976624E-3,1.460274895E-2
3.999925279E0,-1.723477989E-2,-1.406873763E-2,2.835273743E-3,2.242779065E-2
4.004945956E0,-1.238978654E-2,-4.590347409E-3,-1.143550873E-2,1.747423703E-2
4.009966633E0,-1.233442128E-2,-9.436830878E-3,7.652282715E-3,1.731326532E-2
4.014987310E0,-2.833664417E-3,4.855290055E-3,-1.908302307E-3,5.936759490E-3
4.020007987E0,1.840174198E-3,-9.462282062E-3,-1.613807678E-2,1.879783352E-2
4.025028664E0,-7.718503475E-3,-1.421543956E-2,-6.507873535E-3,1.743578033E-2
4.030049341E0,-2.953574061E-3,-1.892982423E-2,-6.454467773E-3,2.021687413E-2
4.035070018E0,-2.976082265E-3,-9.307086468E-3,-6.401062012E-3,1.168128927E-2
4.040090696E0,-7.745362818E-3,-1.400922239E-2,1.264667511E-2,2.040067029E-2
4.045111373E0,-1.722571254E-2,-1.397681236E-2,3.043174744E-3,2.239056428E-2
4.050132050E0,-7.684193552E-3,-1.389236748E-2,1.251506805E-2,2.021562844E-2
4.055152727E0,6.630130112E-3,-1.380862296E-2,-1.835823059E-3,1.542747353E-2
4.060173404E0,1.780010760E-3,-9.080484509E-3,2.925872803E-3,9.704863157E-3
4.065194081E0,-7.778167725E-3,-1.383683085E-2,7.649421692E-3,1.762019959E-2
4.070214758E0,-1.250821352E-2,-4.308059812E-3,-1.912117004E-3,1.336678631E-2
4.075235435E0,-1.245110482E-2,-1.385308802E-2,2.851486206E-3,1.884327553E-2
4.080256112E0,-1.239369810E-2,-4.376083612E-3,1.707172394E-2,2.154524584E-2
4.085276789E0,1.908719540E-3,-2.341713011E-2,-2.065658569E-3,2.358542216E-2
4.090297466E0,6.543047726E-3,-1.380850375E-2,2.699851990E-3,1.551694074E-2
4.095318143E0,-7.803343236E-3,-1.372504234E-2,-6.819725037E-3,1.719818603E-2
4.100338821E0,-7.785439491E-3,-2.313970029E-2,-6.762504578E-3,2.533357981E-2
4.105359498E0,1.729309559E-3,-4.036799073E-3,-1.620388031E-2,1.678844827E-2
4.110380175E0,6.417050958E-3,-4.086673260E-3,-6.572723389E-3,1.005386165E-2
4.115400852E0,-7.876366377E-3,6.123781204E-4,-1.770019531E-3,8.095994282E-3
4.120421477E0,-7.857084274E-3,-1.366983354E-2,-1.755714417E-3,1.586444627E-2
4.125442102E0,-3.090240061E-3,-1.828454435E-2,-1.123714447E-2,2.168288637E-2
4.130462727E0,1.636117697E-3,-8.667588234E-3,-1.646041870E-3,8.972927100E-3
4.135483352E0,-3.173135221E-3,-8.575469255E-3,2.211093903E-2,2.392699489E-2
4.140503977E0,-1.269081980E-2,-1.323261857E-2,1.243019104E-2,2.215104401E-2
4.145524602E0,-3.135949373E-3,-1.320667565E-2,-1.919746399E-3,1.370897102E-2
4.150545227E0,-7.904663682E-3,-8.431643248E-3,7.592201233E-3,1.382815372E-2
4.155565852E0,1.611076295E-3,-1.324571669E-2,1.227569580E-2,1.813111372E-2
4.160586477E0,-1.269497722E-2,-1.807160676E-2,2.673149109E-3,2.224614896E-2
4.165607102E0,-1.268822700E-2,-3.811359406E-3,-1.159572601E-2,1.760620421E-2
4.170627727E0,-3.184519708E-3,-8.560121059E-3,-6.751060486E-3,1.135753741E-2
4.175648352E0,-3.257013857E-3,-8.520811796E-3,7.550239563E-3,1.184138887E-2
4.180668977E0,-1.277399808E-2,1.015171409E-3,-1.150703430E-2,1.722258513E-2
4.185689602E0,-8.017301559E-3,9.751021862E-4,-1.914024353E-3,8.300086614E-3
4.190710227E0,-3.300264478E-3,-8.613541722E-3,-6.646156311E-3,1.136909145E-2
4.195730852E0,-1.286880672E-2,9.232163429E-4,7.655143738E-3,1.500199122E-2
4.200751477E0,-3.259770572E-3,-3.916919231E-3,2.841949463E-3,5.834812525E-3
4.205772102E0,-8.028224111E-3,-3.968209028E-3,-1.931190491E-3,9.161253297E-3
4.210792727E0,-1.275695860E-2,6.775259972E-4,-1.916885376E-3,1.291795200E-2
4.215813352E0,-7.949262857E-3,-8.960977197E-3,-1.902580261E-3,1.212887892E-2
4.220833977E0,-1.267865300E-2,-8.970230818E-3,2.861022949E-3,1.579236319E-2
4.225854602E0,-1.267202944E-2,-1.372790337E-2,-1.140785217E-2,2.189006058E-2
4.230875227E0,-7.917724550E-3,-2.319483459E-2,-1.815795898E-3,2.457616383E-2
4.235895852E0,-3.306105733E-3,-2.313739061E-2,-6.548881531E-3,2.427255711E-2
4.240916477E0,-8.229911327E-3,-8.834913373E-3,-1.746177673E-3,1.219984718E-2
4.245937102E0,-1.791309565E-2,5.998909473E-4,-1.731872559E-3,1.800661677E-2
4.250957727E0,-3.242058307E-2,9.955644608E-3,-6.464958191E-3,3.452542180E-2
4.255978352E0,-2.337612957E-2,2.394318581E-4,-1.590442657E-2,2.827457419E-2
4.260998977E0,-1.936317235E-2,-1.884092391E-2,-3.475952148E-2,4.402427956E-2
4.266019602E0,-1.241937280E-3,-1.396784186E-2,-5.820465088E-2,5.987006262E-2
4.271040227E0,7.491625845E-3,4.139542580E-4,-4.821586609E-2,4.879616336E-2
4.276060852E0,1.656766981E-2,-4.370018840E-3,-9.822845459E-3,1.975026685E-2
4.281081477E0,2.102717757E-2,-9.062200785E-3,2.824878693E-2,3.636288826E-2
4.286102102E0,1.758933067E-3,-1.376718283E-2,7.549858093E-2,7.676369514E-2
4.291122727E0,-7.955573499E-3,-1.368448138E-2,8.436775208E-2,8.583981460E-2
4.296143352E0,-1.774563640E-2,-1.365482807E-2,5.042743683E-2,5.517506979E-2
4.301163977E0,-3.815457225E-3,-4.128426313E-3,2.525329590E-3,6.162702913E-3
4.306184602E0,-8.943445981E-3,-1.847581565E-2,-3.548145294E-2,4.099115140E-2
4.311205227E0,1.941922307E-2,-1.365728676E-2,-3.518486023E-2,4.244528355E-2
4.316225852E0,1.931562275E-2,-3.256863356E-2,-2.539539337E-2,4.559314837E-2
4.321246477E0,-4.270844162E-3,-8.586317301E-3,1.280117035E-2,1.599484032E-2
4.326267102E0,-3.762513399E-3,9.506493807E-4,6.967163086E-2,6.977962731E-2
4.331287727E0,-3.310307860E-3,-1.813478768E-2,8.333206177E-2,8.534671160E-2
4.336308352E0,-2.965673804E-3,-1.811909676E-2,6.363868713E-2,6.623427654E-2
4.341328977E0,2.123855054E-3,-2.290436625E-2,2.036666870E-2,3.072331277E-2
4.346349602E0,2.473615110E-3,-3.907725215E-3,-8.299827576E-3,9.501380208E-3
4.351370279E0,7.725484669E-3,1.018255949E-2,-3.489494324E-3,1.324930948E-2
4.356390956E0,-5.956575274E-3,-9.032145143E-3,-1.771354675E-2,2.075644896E-2
4.361411633E0,-1.487996429E-2,-1.864166558E-2,-1.282405853E-2,2.708101752E-2
4.366432310E0,-2.393589169E-2,4.241615534E-4,-3.224372864E-3,2.415581512E-2
4.371452987E0,-1.893122494E-2,5.085185170E-3,-1.744461060E-2,2.624051876E-2
4.376473664E0,-1.407209784E-2,5.010783672E-3,-1.255035400E-2,1.951008140E-2
4.381494341E0,-9.253449738E-3,-9.360402822E-3,-2.194404602E-2,2.558875981E-2
4.386515018E0,-4.422284663E-3,-1.881101727E-2,-2.651023865E-2,3.280554413E-2
4.391535696E0,-9.128369391E-3,-1.398926973E-2,-1.204490662E-2,2.059384789E-2
4.396556373E0,4.494786263E-4,-1.395662129E-2,2.300262451E-3,1.415204989E-2
4.401577050E0,-4.350662231E-3,-1.397657394E-2,1.177597046E-2,1.878686672E-2
4.406597727E0,-4.361540079E-3,-2.344104648E-2,6.928443909E-3,2.482959981E-2
4.411618404E0,3.234893084E-4,-9.032636881E-3,-2.626419067E-3,9.412292573E-3
4.416639081E0,2.217516303E-4,5.256116390E-3,-2.604484558E-3,5.870202135E-3
4.421659758E0,4.921279848E-3,3.798902035E-4,2.164840698E-3,5.389791012E-3
4.426680435E0,8.385628462E-5,2.404600382E-4,-2.603530884E-3,2.615956034E-3
4.431701112E0,-9.460963309E-3,-1.409098506E-2,-2.582550049E-3,1.716785518E-2
4.436721789E0,-4.679992795E-3,-9.308591485E-3,-2.561569214E-3,1.072911202E-2
4.441742466E0,-4.688121378E-3,-1.401153207E-2,-7.288932800E-3,1.647513443E-2
4.446763143E0,4.023313522E-7,-1.872721314E-2,2.268791199E-3,1.886414392E-2
4.451783821E0,-4.673004150E-5,-1.870699227E-2,-2.500534058E-3,1.887343143E-2
4.456804498E0,-9.538546205E-3,-1.393844187E-2,-7.229804993E-3,1.837210129E-2
4.461825175E0,-9.506188333E-3,-9.209632874E-3,1.182270050E-2,1.774714629E-2
4.466845852E0,-1.422183961E-2,-9.268313646E-3,1.172256470E-2,2.062961179E-2
4.471866529E0,-1.889894903E-2,1.700818539E-4,6.874084473E-3,2.011099797E-2
4.476887206E0,-9.342737496E-3,-9.463772178E-3,-7.430076599E-3,1.523337671E-2
4.481907883E0,-9.311243892E-3,-1.421692967E-2,-1.211738586E-2,2.087226371E-2
4.486928560E0,-9.280011058E-3,-4.684984684E-3,-2.520561218E-3,1.069677127E-2
4.491949237E0,-9.249038994E-3,-9.477958083E-3,6.996154785E-3,1.497740276E-2
4.496969914E0,-1.396683604E-2,-1.423099637E-2,1.168537140E-2,2.311150517E-2
4.501990591E0,-4.451714456E-3,-1.889252663E-2,-1.215457916E-2,2.290150909E-2
4.507011268E0,-9.261384606E-3,-9.321600199E-3,-2.555847168E-3,1.338647937E-2
4.512031946E0,-4.533983767E-3,-9.327441454E-3,-7.283210754E-3,1.267293698E-2
4.517052623E0,-4.595242441E-3,2.152770758E-4,-7.222175598E-3,8.562851025E-3
4.522073300E0,-9.352572262E-3,-9.315550327E-3,-2.413749695E-3,1.341925011E-2
4.527093977E0,-9.322524071E-3,1.747310162E-4,-2.394676208E-3,9.626757508E-3
4.532114654E0,-1.409238577E-2,-4.659175873E-3,-7.122993469E-3,1.646330138E-2
4.537135331E0,-9.273573756E-3,-9.452775121E-3,-7.064819336E-3,1.500885738E-2
4.542156008E0,-1.874043047E-2,-9.406030178E-3,-7.005691528E-3,2.210784593E-2
4.547176685E0,-9.134389460E-3,-4.559263587E-3,-1.169490814E-2,1.552400824E-2
4.552197362E0,-1.860240847E-2,-1.874688268E-2,-2.099037170E-3,2.649341745E-2
4.557218039E0,-1.374525577E-2,-1.862226427E-2,7.415771484E-3,2.430461786E-2
4.562238716E0,5.684271455E-4,-9.053587914E-3,2.604484558E-3,9.437897189E-3
4.567259393E0,-4.231169820E-3,-4.313170910E-3,1.207923889E-2,1.350608209E-2
4.572280071E0,5.062222481E-4,-4.360750318E-3,2.480506897E-3,5.042352503E-3
4.577300748E0,4.037320614E-4,-4.407927394E-3,7.207870483E-3,8.458499890E-3
4.582321425E0,-9.195663035E-3,-4.455134273E-3,2.399444580E-3,1.049598849E-2
4.587342102E0,-9.113475680E-3,-4.553437233E-3,2.377510071E-3,1.046144272E-2
4.592362779E0,-9.032741189E-3,-1.409640908E-2,2.356529236E-3,1.690716985E-2
4.597383456E0,-1.370042562E-2,-1.406246424E-2,2.335548401E-3,1.977142759E-2
4.602404133E0,-1.358070225E-2,-9.332209826E-3,-2.434730530E-3,1.665693629E-2
4.607424810E0,-4.068799317E-3,-1.408645511E-2,2.333641052E-3,1.484685913E-2
4.612445487E0,6.153285503E-4,-9.304091334E-3,-1.193141937E-2,1.514277098E-2
4.617466112E0,5.630701780E-4,-9.258583188E-3,-1.658058167E-2,1.899879204E-2
4.622486737E0,5.112439394E-4,-4.464954138E-3,-2.197265625E-3,5.002515572E-3
4.627507362E0,-9.036369622E-3,-1.400825381E-2,1.681423187E-2,2.367711013E-2
4.632527987E0,4.895627499E-4,-4.426136613E-3,1.192569733E-2,1.272998876E-2
4.637548612E0,5.187630653E-3,-9.273171425E-3,1.182460785E-2,1.589731332E-2
4.642569237E0,5.098037422E-3,-9.279415011E-3,2.227783203E-3,1.081945223E-2
4.647589862E0,-1.878599823E-2,-1.398260891E-2,-7.287979126E-3,2.452634749E-2
4.652610487E0,-4.431076348E-3,-9.201526642E-3,2.268791199E-3,1.046183271E-2
4.657631112E0,-1.393905282E-2,3.397166729E-4,-2.498626709E-3,1.416530043E-2
4.662651737E0,-1.387002319E-2,-9.192138910E-3,2.270698547E-3,1.679372005E-2
4.667672362E0,-1.855083555E-2,-1.394838095E-2,-2.497673035E-3,2.334371867E-2
4.672692987E0,-1.369411498E-2,-1.866418123E-2,-2.477645874E-3,2.328130528E-2
4.677713612E0,-4.129357636E-3,-1.384365559E-2,-1.195526123E-2,1.875171100E-2
4.682734237E0,-4.089392722E-3,-2.330881357E-2,-2.359390259E-3,2.378214972E-2
4.687754862E0,6.979703903E-4,-8.953005075E-3,7.156372070E-3,1.148290572E-2
4.692775487E0,-4.103474319E-3,5.865842104E-4,1.659393311E-2,1.710383578E-2
4.697796112E0,-4.117175937E-3,-4.303067923E-3,6.957054138E-3,9.157954658E-3
4.702816737E0,-1.362777501E-2,3.969520330E-4,2.149581909E-3,1.380197541E-2
4.707837362E0,-1.356133819E-2,-9.187296033E-3,2.130508423E-3,1.651833430E-2
4.712857987E0,-8.798092604E-3,-1.394274831E-2,6.861686707E-3,1.785747486E-2
4.717878612E0,-8.823052049E-3,-1.396198571E-2,-1.219081879E-2,2.052801391E-2
4.722899237E0,-1.349324733E-2,-4.432573915E-3,-7.341384888E-3,1.598785061E-2
4.727919862E0,-8.626736701E-3,-1.877656579E-2,-7.282257080E-3,2.190915966E-2
4.732940487E0,-1.804706454E-2,-9.207025170E-3,-7.222175598E-3,2.150873477E-2
4.737961112E0,-8.446030319E-3,-1.396231353E-2,2.333641052E-3,1.648415930E-2
4.742981737E0,-3.726191819E-3,-9.181395173E-3,-2.434730530E-3,1.020345214E-2
4.748002362E0,-8.542679250E-3,-1.868581772E-2,-2.414703369E-3,2.068738613E-2
4.753022987E0,-2.281603217E-2,-1.861403883E-2,-2.394676208E-3,2.954298969E-2
4.758043612E0,-1.317603886E-2,-1.854285598E-2,-2.375602722E-3,2.287113894E-2
4.763064237E0,-8.364856243E-3,5.217492580E-4,-2.356529236E-3,8.706105461E-3
4.768084862E0,-3.593787551E-3,-1.381203532E-2,-2.337455750E-3,1.446206514E-2
4.773105487E0,-8.307546377E-3,-1.852938533E-2,1.667499542E-2,2.627563358E-2
4.778126112E0,1.211546361E-3,-8.909985423E-3,2.290725708E-3,9.279176100E-3
4.783146737E0,-3.646090627E-3,-4.119262099E-3,7.019996643E-3,8.918668621E-3
4.788167362E0,-3.662072122E-3,-4.220366478E-3,6.959915161E-3,8.925395481E-3
4.793187987E0,-8.427180350E-3,-9.017631412E-3,2.152442932E-3,1.252868930E-2
4.798208612E0,-8.404850960E-3,-4.330247641E-3,-7.364273071E-3,1.198436824E-2
4.803229237E0,5.916245282E-3,-4.429593682E-3,-2.555847168E-3,7.820205443E-3
4.808249862E0,-1.792115718E-2,2.208054066E-4,2.212524414E-3,1.805856844E-2
4.813270487E0,-8.321940899E-3,-4.665389657E-3,-2.555847168E-3,9.876887957E-3
4.818291112E0,-3.603138030E-3,-4.606619477E-3,1.646041870E-2,1.746851254E-2
4.823311737E0,-8.368737996E-3,-1.409724355E-2,2.078056335E-3,1.652532509E-2
4.828332362E0,-8.346132934E-3,-4.566714168E-3,-7.436752319E-3,1.207551648E-2
4.833352987E0,-1.787263155E-2,-1.880617440E-2,-7.374763489E-3,2.697202793E-2
4.838373612E0,-8.325733244E-3,-1.393297315E-2,2.183914185E-3,1.637727254E-2
4.843394237E0,-1.310313493E-2,-9.203806520E-3,2.164840698E-3,1.615824046E-2
4.848414914E0,-3.543302417E-3,-9.262531996E-3,-2.603530884E-3,1.025318799E-2
4.853435591E0,1.187592745E-3,-4.520788789E-3,2.165794373E-3,5.151560255E-3
4.858456268E0,-8.418336511E-3,-1.396021247E-2,-2.599716187E-3,1.650801157E-2
4.863476946E0,-8.396081626E-3,-9.075909853E-3,-1.207447052E-2,1.728175815E-2
4.868497623E0,-1.786947995E-2,-9.031891823E-3,-1.197338104E-2,2.332927854E-2
4.873518300E0,-8.269928396E-3,-1.378864050E-2,2.370834351E-3,1.625235915E-2
4.878538977E0,-3.498882055E-3,-9.008765221E-3,2.349853516E-3,9.945945806E-3
4.883559654E0,-1.776235551E-2,-9.069532156E-3,-1.191711426E-2,2.323306478E-2
4.888580331E0,-8.165232837E-3,-4.277884960E-3,-7.069587708E-3,1.161681529E-2
4.893601008E0,-3.396593034E-3,5.257576704E-4,-2.261161804E-3,4.114136370E-3
4.898621685E0,-1.291318983E-2,4.889518023E-4,-2.242088318E-3,1.311550630E-2
4.903642362E0,-2.234893292E-2,-1.379223168E-2,-6.972312927E-3,2.717192678E-2
4.908663039E0,-7.963553071E-3,-9.064227343E-3,-6.916046143E-3,1.390719559E-2
4.913683716E0,-1.269283146E-2,-4.324123263E-3,-6.859779358E-3,1.506195821E-2
4.918704393E0,-3.138706088E-3,-4.372835159E-3,-1.630020142E-2,1.716594680E-2
4.923725071E0,-1.265744865E-2,-1.386581361E-2,-3.040981293E-2,3.573833398E-2
4.928745748E0,-1.259909570E-2,-1.378229260E-2,-6.413459778E-3,1.974389192E-2
4.933766425E0,-7.792718709E-3,-8.950963616E-3,3.136634827E-3,1.227536935E-2
4.938787102E0,-7.774904370E-3,-4.263713956E-3,7.857322693E-3,1.184761219E-2
4.943807779E0,-1.250497997E-2,-4.311695695E-3,-1.706123352E-3,1.333701993E-2
4.948828456E0,-1.244789362E-2,-1.860520244E-2,-1.118946075E-2,2.502613924E-2
4.953849133E0,-1.244319975E-2,4.599243402E-4,-1.109600067E-2,1.667830871E-2
4.958869810E0,-7.637351751E-3,3.206729889E-4,-6.257057190E-3,9.878397523E-3
4.963890487E0,1.876160502E-3,4.982575774E-3,-6.205558777E-3,8.176490648E-3
4.968911164E0,1.814171672E-3,-9.387955070E-3,-1.406669617E-3,9.664555792E-3
4.973931841E0,-2.995796502E-3,-1.414172351E-2,3.352165222E-3,1.483914257E-2
4.978952518E0,-3.017954528E-3,-1.410779357E-2,8.071899414E-3,1.653158943E-2
4.983973196E0,-3.039158881E-3,-4.576742649E-3,3.254890442E-3,6.385716230E-3
4.988993873E0,-1.260910183E-2,-4.570215940E-3,-1.521110535E-3,1.349778130E-2
4.994014550E0,1.643210649E-3,-9.364128113E-3,3.239631653E-3,1.004401562E-2
4.999035227E0,1.583158970E-3,-4.569202662E-3,-1.535415649E-3,5.073608824E-3
5.004055904E0,-1.272188872E-2,-9.363129735E-3,7.973670959E-3,1.769446466E-2
5.009076581E0,-1.741072536E-2,-1.891753078E-2,-1.591682434E-3,2.575926592E-2
5.014097258E0,1.680478454E-3,-1.884421706E-2,-6.327629089E-3,1.994912064E-2
5.019117935E0,1.672029495E-3,-9.273678064E-3,7.969856262E-3,1.234161239E-2
5.024138612E0,-1.263376325E-2,-1.877692342E-2,7.902145386E-3,2.397141482E-2
5.029159289E0,-3.130510449E-3,-1.870438457E-2,-1.590633392E-2,2.475208186E-2
5.034179966E0,-7.900044322E-3,-4.438847303E-3,-1.102733612E-2,1.427291868E-2
5.039200643E0,-1.263137162E-2,-4.486590624E-3,3.309249878E-3,1.380696126E-2
5.044221321E0,-1.262590289E-2,-9.333923459E-3,1.277732849E-2,2.024341064E-2
5.049241998E0,-3.070801497E-3,-9.340077639E-3,1.741886139E-2,2.000209000E-2
5.054262675E0,1.655399799E-3,1.504272223E-4,2.202129364E-2,2.208393874E-2
5.059283352E0,1.542568207E-3,-4.735186696E-3,7.591247559E-3,9.079016974E-3
5.064304029E0,-3.266669810E-3,-9.528547525E-3,-1.146697998E-2,1.526289551E-2
5.069324706E0,-8.035063744E-3,-9.533077478E-3,-6.624221802E-3,1.411814896E-2
5.074345383E0,-1.281641424E-2,-9.589880705E-3,-6.569862366E-3,1.730287194E-2
5.079366060E0,-8.006691933E-3,-4.792660475E-3,-1.766204834E-3,9.497167454E-3
5.084386737E0,-1.753447950E-2,-9.532406926E-3,1.249408722E-2,2.354627292E-2
5.089407414E0,-7.937707007E-3,-9.536489844E-3,-1.856803894E-3,1.254589781E-2
5.094428091E0,1.527167857E-3,-4.352629185E-5,1.240444183E-2,1.249817240E-2
5.099448768E0,-3.280408680E-3,-4.875198007E-3,7.551193237E-3,9.568132316E-3
5.104469446E0,-8.048690856E-3,-9.718909860E-3,-6.758689880E-3,1.431497545E-2
5.109490123E0,-1.277725399E-2,-5.025267601E-3,-1.955986023E-3,1.386857654E-2
5.114510748E0,-1.746639609E-2,4.377767444E-3,-6.690025330E-3,1.920927586E-2
5.119531373E0,-1.261947304E-2,-1.004005969E-2,-1.138496399E-2,1.974009380E-2
5.124551998E0,6.433345377E-3,-5.343332887E-3,-1.129245758E-2,1.405200118E-2
5.129572623E0,1.584105194E-3,-5.382731557E-3,7.794380188E-3,9.603934131E-3
5.134593248E0,1.471877098E-3,-1.022219658E-2,-1.768112183E-3,1.047787888E-2
5.139613873E0,-8.136406541E-3,-1.971794665E-2,-1.753807068E-3,2.140267205E-2
5.144634498E0,-1.286499947E-2,-1.488944888E-2,-6.488800049E-3,2.071975930E-2
5.149655123E0,-1.760455221E-2,-1.959739625E-2,7.810592651E-3,2.747696410E-2
5.154675748E0,-1.275723428E-2,-2.431881428E-2,2.995491028E-3,2.762471214E-2
5.159696373E0,-1.275072247E-2,-1.950390637E-2,-6.526947021E-3,2.419884965E-2
5.164716998E0,-3.247253597E-3,-5.180209875E-3,-6.472587585E-3,8.903573458E-3
5.169737623E0,1.480415463E-3,-4.728585482E-4,-6.419181824E-3,6.604628713E-3
5.174758248E0,6.168700755E-3,-1.479873061E-2,3.129959106E-3,1.633560347E-2
5.179778873E0,1.320898533E-3,-1.001124084E-2,-2.063941956E-2,2.297727912E-2
5.184799498E0,1.262776554E-3,-1.476022601E-2,-2.521705627E-2,2.924651780E-2
5.189820123E0,-8.291862905E-3,-9.972646832E-3,-1.076221466E-2,1.685330649E-2
5.194840748E0,-8.217975497E-3,-1.002536714E-2,3.571510315E-3,1.344614419E-2
5.199861373E0,-1.764170080E-2,-5.277246237E-3,-1.207351685E-3,1.845363469E-2
5.204881998E0,-8.044794202E-3,-1.481418312E-2,-5.947113037E-3,1.787587449E-2
5.209902623E0,-8.024871349E-3,-1.007807255E-2,-1.064777374E-2,1.671350329E-2
5.214923248E0,-1.270171255E-2,-5.381420255E-3,-5.812644958E-3,1.496930282E-2
5.219943873E0,-3.093309700E-3,-5.420073867E-3,-5.764961243E-3,8.495913356E-3
5.224964498E0,1.634605229E-3,-1.020690799E-2,-9.689331055E-4,1.038227992E-2
5.229985123E0,-3.173865378E-3,-5.456864834E-3,1.803207397E-2,1.910514295E-2
5.235005748E0,-7.943026721E-3,-5.547225475E-3,1.313114166E-2,1.631840266E-2
5.240026373E0,-7.924713194E-3,-5.585312843E-3,8.272171021E-3,1.274463072E-2
5.245046998E0,1.642353833E-3,-1.037158072E-2,-1.295089722E-3,1.058037193E-2
5.250067623E0,-3.166943789E-3,-1.042097807E-2,-1.286506653E-3,1.096728846E-2
5.255088248E0,-3.134995699E-3,-1.041764021E-2,-6.025314331E-3,1.243623087E-2
5.260108873E0,-7.903724909E-3,-5.665838718E-3,-1.227378845E-3,9.801890361E-3
5.265129498E0,-7.884979248E-3,-1.994805038E-2,8.278846741E-3,2.299210549E-2
5.270150123E0,-7.865630090E-3,-1.036831737E-2,8.209228516E-3,1.538705867E-2
5.275170748E0,1.649029553E-3,-5.617737770E-3,-6.105422974E-3,8.458987280E-3
5.280191373E0,-1.260618120E-2,-5.707159638E-3,3.440856934E-3,1.425927670E-2
5.285211998E0,-3.051243722E-3,-1.054392755E-2,-1.083564758E-2,1.542386965E-2
5.290232623E0,-3.073692322E-3,-1.054038107E-2,-1.249313354E-3,1.105024894E-2
5.295253248E0,-1.259296387E-2,-2.478235960E-2,-5.988121033E-3,2.843599269E-2
5.300273873E0,-7.786631584E-3,-1.985937357E-2,3.559112549E-3,2.162622556E-2
5.305294498E0,-7.768861949E-3,-1.977780461E-2,-5.968093872E-3,2.207113309E-2
5.310315123E0,-7.752001286E-3,-1.025220752E-2,-1.541709900E-2,2.007207574E-2
5.315335748E0,-2.986021340E-3,-1.979960501E-2,-1.054191589E-2,2.262902280E-2
5.320356373E0,1.740999520E-3,-1.502151787E-2,-5.707740784E-3,1.616339641E-2
5.325376998E0,-1.256536692E-2,-1.023134589E-2,-5.661010742E-3,1.716437961E-2
5.330397623E0,-1.250701398E-2,-1.497808099E-2,-1.511192322E-2,2.468073200E-2
5.335418248E0,-1.244990528E-2,-1.018868387E-2,4.007339478E-3,1.657914926E-2
5.340438873E0,-7.593609393E-3,-1.493659616E-2,-7.753372192E-4,1.677396662E-2
5.345459550E0,-2.777040005E-3,-1.964455843E-2,-7.696151733E-4,1.985479626E-2
5.350480227E0,-7.600650191E-3,-1.481585205E-2,3.985404968E-3,1.712199778E-2
5.355500904E0,-2.835169435E-3,-5.278900266E-3,-5.545616150E-3,8.164486035E-3
5.360521581E0,1.138684154E-2,-5.266919732E-3,-5.499839783E-3,1.369849777E-2
5.365542258E0,1.695156097E-3,-1.485624909E-2,-5.455017090E-3,1.591662347E-2
5.370562935E0,-3.166489303E-3,-6.227791309E-4,-6.618499756E-4,3.294321439E-3
5.375583612E0,-1.268422604E-2,-5.501925945E-3,4.090309143E-3,1.441843986E-2
5.380604289E0,-3.127872944E-3,-1.033999026E-2,-6.942749023E-4,1.082501757E-2
5.385624966E0,-7.948562503E-3,-1.983433962E-2,1.355743408E-2,2.530582330E-2
5.390645643E0,-3.232091665E-3,-2.450105548E-2,3.947257996E-3,2.502656552E-2
5.395666321E0,-1.274927706E-2,-1.013529301E-2,-8.354187012E-4,1.630846879E-2
5.400686998E0,-7.941640913E-3,-5.386248231E-3,-8.296966553E-4,9.631704260E-3
5.405707675E0,-1.741958410E-2,-5.425274372E-3,-1.032066345E-2,2.096166993E-2
5.410728352E0,-3.075271845E-3,-5.411654711E-3,-7.371902466E-4,6.267914572E-3
5.415749029E0,-7.793344557E-3,-1.014706492E-2,-5.480766296E-3,1.391897788E-2
5.420769706E0,-7.723607123E-3,-1.014642417E-2,-6.875991821E-4,1.277015361E-2
5.425790383E0,-1.720413566E-2,-1.969510317E-2,-6.837844849E-4,2.616002549E-2
5.430811060E0,-1.225557178E-2,-2.431148291E-2,-5.427360535E-3,2.776154684E-2
5.435831737E0,-2.704322338E-3,-1.464429498E-2,-1.013088226E-2,1.801120513E-2
5.440852414E0,-2.728909254E-3,-1.460617781E-2,4.198074341E-3,1.544057007E-2
5.445873091E0,1.995205879E-3,-1.462027431E-2,-5.874633789E-4,1.476747712E-2
5.450893768E0,-7.617436349E-3,-5.137264729E-3,4.164695740E-3,1.008769131E-2
5.455914446E0,1.895144582E-3,-1.467576623E-2,8.877754211E-3,1.725642510E-2
5.460935123E0,1.832224429E-3,-9.836986661E-3,8.803367615E-3,1.332751418E-2
5.465955800E0,-7.727161050E-3,-2.900063992E-4,1.347827911E-2,1.553889087E-2
5.470976477E0,-7.709890604E-3,-5.120024085E-3,-5.628585815E-3,1.083226837E-2
5.475997154E0,-7.744669914E-3,-1.460635662E-2,-8.335113525E-4,1.655355874E-2
5.481017831E0,-2.978757024E-3,-5.019649863E-3,-8.268356323E-4,5.895212916E-3
5.486038508E0,-1.724503189E-2,-9.757488966E-3,-1.506519318E-2,2.489095742E-2
5.491059185E0,-1.714767516E-2,-1.445627213E-2,-5.442619324E-3,2.307918266E-2
5.496079862E0,-1.705113053E-2,-4.922315478E-3,-1.489543915E-2,2.316990180E-2
5.501100539E0,-1.220689714E-2,-1.440988481E-2,-1.477146149E-2,2.397601286E-2
5.506121216E0,-2.655282617E-3,-1.912222803E-2,4.344940186E-3,1.978859863E-2
5.511141893E0,-1.697767526E-2,-9.497880936E-3,-4.396438599E-4,1.945878943E-2
5.516162571E0,-1.213558018E-2,-1.425154507E-2,-1.468276978E-2,2.378996788E-2
5.521183248E0,-2.636462450E-3,-9.468197823E-3,-3.147125244E-4,9.833450474E-3
5.526203925E0,2.086885273E-3,-4.672810435E-3,1.393318176E-2,1.484330831E-2
5.531224602E0,-7.475376129E-3,8.223950863E-5,-5.176544189E-3,9.093108454E-3
5.536245279E0,-1.695873588E-2,-1.419676840E-2,-5.133628845E-3,2.270464932E-2
5.541265956E0,-1.681186259E-2,-1.416197419E-2,-5.091667175E-3,2.256380534E-2
5.546286633E0,-1.196961850E-2,-9.378969669E-3,-3.013610840E-4,1.520945948E-2
5.551307310E0,-1.666701585E-2,-4.637032747E-3,-9.797096252E-3,1.988151365E-2
5.556327987E0,-7.078997791E-3,-4.682704806E-3,-9.716033936E-3,1.290121116E-2
5.561348664E0,-2.319388092E-3,-4.728004336E-3,-1.392364502E-4,5.268109045E-3
5.566369341E0,2.401322126E-3,-4.772514105E-3,-4.887580872E-3,7.240972698E-3
5.571390018E0,-7.214702666E-3,-4.816651344E-3,-9.594917297E-3,1.293501073E-2
5.576410696E0,-1.194943488E-2,-4.808112979E-3,4.730224609E-3,1.372158770E-2
5.581431373E0,-2.399966121E-3,-4.851952195E-3,4.690170288E-3,7.162330264E-3
5.586452050E0,2.322182059E-3,-1.439201832E-2,-9.822845459E-5,1.457848996E-2
5.591472727E0,2.257242799E-3,-2.860069275E-2,-9.822845459E-5,2.868979644E-2
5.596493404E0,2.192087471E-3,-1.894886792E-2,-9.822845459E-5,1.907549453E-2
5.601514081E0,-7.421426475E-3,-1.887446642E-2,-9.593963623E-3,2.243584613E-2
5.606534706E0,2.039156854E-3,-4.555180669E-3,-9.513854980E-3,1.074342907E-2
5.611555331E0,-7.521942258E-3,1.992881298E-4,6.198883057E-5,7.524837121E-3
5.616575956E0,-2.757877111E-3,-4.634797573E-3,9.557723999E-3,1.097439396E-2
5.621596581E0,-1.702674478E-2,-1.892517507E-2,4.728317261E-3,2.589264902E-2
5.626617206E0,-1.693197340E-2,1.945346594E-4,9.437561035E-3,1.938548749E-2
5.631637831E0,-2.158648521E-2,2.128183842E-4,1.410865784E-2,2.578906476E-2
5.636658456E0,-7.208213210E-3,-4.517555237E-3,9.243965149E-3,1.256254491E-2
5.641679081E0,-1.194377244E-2,-9.208500385E-3,-3.290176392E-4,1.508504000E-2
5.646699706E0,2.302236855E-3,-4.467174411E-3,-9.822845459E-3,1.103377699E-2
5.651720331E0,2.235934138E-3,-9.262353182E-3,-4.993438721E-3,1.075755633E-2
5.656740956E0,-2.577543259E-3,-9.216755629E-3,-1.444911957E-2,1.733116758E-2
5.661761581E0,-2.603180707E-3,-4.423439503E-3,-4.831314087E-3,7.048756105E-3
5.666782206E0,-2.575941384E-3,-4.470080137E-3,-4.386901855E-5,5.159361873E-3
5.671802831E0,2.146907151E-3,-9.317129850E-3,-4.794120789E-3,1.069587365E-2
5.676823456E0,-7.415093482E-3,-9.375303984E-3,-4.755973816E-3,1.286465013E-2
5.681844081E0,-1.214892417E-2,-9.381100535E-3,1.427650452E-2,2.096234689E-2
5.686864706E0,2.098798752E-3,-9.386822581E-3,4.660606384E-3,1.068824804E-2
5.691885331E0,-7.462799549E-3,-9.392514825E-3,-4.876136780E-3,1.294949504E-2
5.696905956E0,-7.448486984E-3,-1.894746721E-2,9.407997131E-3,2.242759198E-2
5.701926581E0,-7.434293628E-3,-9.324967861E-3,4.581451416E-3,1.277550173E-2
5.706947206E0,-7.418692112E-3,-9.278848767E-3,-4.953384399E-3,1.287128759E-2
5.711967831E0,-1.215326041E-2,-1.403433084E-2,-4.913330078E-3,1.920429622E-2
5.716988456E0,-1.215023547E-2,-9.252384305E-3,-1.436901093E-2,2.096910376E-2
5.722009081E0,-1.209609956E-2,-4.562586546E-3,-5.722045898E-6,1.292798721E-2
5.727029706E0,-2.153940499E-2,-1.420925558E-2,-1.425361633E-2,2.947905171E-2
5.732050331E0,-7.160760462E-3,-1.897475123E-2,9.605407715E-3,2.244062237E-2
5.737070956E0,-7.200106978E-3,-1.890052855E-2,9.525299072E-3,2.235627076E-2
5.742091581E0,-2.438724041E-3,-1.882693172E-2,-9.549140930E-3,2.125057235E-2
5.747112206E0,2.335645258E-3,-1.400503516E-2,4.775047302E-3,1.497989738E-2
5.752132831E0,-2.142076194E-2,-1.391991973E-2,-9.510993958E-3,2.725935094E-2
5.757153456E0,-1.179238409E-2,-1.388782263E-2,-4.684448242E-3,1.881159204E-2
5.762174081E0,-6.991952658E-3,-4.306688905E-3,-4.645347595E-3,9.434735056E-3
5.767194706E0,-6.980799139E-3,-4.302784801E-3,4.890441895E-3,9.547875972E-3
5.772215331E0,-6.971277297E-3,-4.351645708E-3,9.596824646E-3,1.263465753E-2
5.777235956E0,-6.960302591E-3,-1.389627159E-2,1.907348633E-5,1.554196062E-2
5.782256581E0,-1.169869304E-2,-1.386478543E-2,4.766464233E-3,1.875662217E-2
5.787277206E0,-2.152085304E-3,-9.085074067E-3,1.897144318E-2,2.114440111E-2
5.792297831E0,-2.181269228E-3,-4.344776273E-3,4.567146301E-3,6.670370428E-3
5.797318456E0,-6.957933307E-3,-9.140565991E-3,9.276390076E-3,1.476530377E-2
5.802339081E0,-1.169557869E-2,-1.394869387E-2,9.197235107E-3,2.039465016E-2
5.807359706E0,-1.164600253E-2,-4.471674562E-3,-3.786087036E-4,1.248072886E-2
5.812380331E0,-1.164796948E-2,-1.396338642E-2,4.372596741E-3,1.870216446E-2
5.817400956E0,-2.153687179E-3,-1.862794161E-2,9.084701538E-3,2.083675548E-2
5.822421581E0,-2.597725391E-2,-1.375618577E-2,-9.984970093E-3,3.104432308E-2
5.827442206E0,-1.631013304E-2,-4.228070378E-3,9.091377258E-3,1.914549972E-2
5.832462831E0,-6.724327803E-3,4.717707634E-4,-4.825592041E-4,6.758107386E-3
5.837483456E0,-1.966141164E-3,-4.364177585E-3,-4.796981812E-4,4.810599486E-3
5.842504133E0,-1.149311662E-2,-1.396019757E-2,4.270553589E-3,1.858000198E-2
5.847524810E0,-1.894786954E-3,-9.178876877E-3,8.982658386E-3,1.298191627E-2
5.852545487E0,2.875044942E-3,-1.393438876E-2,4.158020020E-3,1.482302951E-2
5.857566164E0,-6.693027914E-3,-4.405185580E-3,-1.487159729E-2,1.689279990E-2
5.862586841E0,-1.143211871E-2,-4.503875971E-3,-5.044937134E-4,1.229767258E-2
5.867607518E0,-1.886203885E-3,-4.549846053E-3,4.247665405E-3,6.503962300E-3
5.872628196E0,-6.613433361E-3,-9.395822883E-3,-5.378723145E-4,1.150253429E-2
5.877648873E0,2.892315388E-3,-4.652529955E-3,-5.282402039E-3,7.610209891E-3
5.882669550E0,-6.623230875E-3,-9.445756674E-3,-9.987831116E-3,1.525930132E-2
5.887690227E0,-6.615154445E-3,-9.450942278E-3,-4.081726074E-4,1.154327437E-2
5.892710904E0,-1.859411597E-3,-4.708006978E-3,9.091377258E-3,1.040556974E-2
5.897731581E0,-6.639525294E-3,-4.752680659E-3,4.265785217E-3,9.212393451E-3
5.902752258E0,-1.617946476E-2,-1.909397542E-2,-5.187988281E-4,2.503246152E-2
5.907772935E0,-1.845493913E-3,-4.824757576E-3,-5.265235901E-3,7.376099412E-3
5.912793612E0,2.872027457E-3,-9.564638138E-3,-4.730224609E-4,9.997729476E-3
5.917814289E0,-1.895613968E-3,-1.436923444E-2,-4.711151123E-4,1.450138615E-2
5.922834966E0,-1.617167145E-2,-1.433299482E-2,-4.682540894E-4,2.161427676E-2
5.927855643E0,-6.638154387E-3,-1.424515247E-2,-4.644393921E-4,1.572275951E-2
5.932876321E0,-1.132579893E-2,-9.461447597E-3,-5.209922791E-3,1.565043154E-2
5.937896998E0,-1.781530678E-3,-9.466499090E-3,-5.167007446E-3,1.093098452E-2
5.942917675E0,-1.813799143E-3,-9.471520782E-3,-9.873390198E-3,1.380157264E-2
5.947938352E0,-6.542399526E-3,-1.422499120E-2,4.453659058E-3,1.627846569E-2
5.952959029E0,-6.534226239E-3,-1.418995857E-2,9.163856506E-3,1.811152404E-2
5.957979706E0,2.970866859E-3,-1.410330832E-2,4.339218140E-3,1.505184937E-2
5.963000383E0,-6.597228348E-3,-1.406928897E-2,-4.463195801E-4,1.554565904E-2
5.968021060E0,-6.589367986E-3,-1.878446341E-2,9.053230286E-3,2.186862626E-2
5.973041737E0,-1.833081245E-3,-1.401521266E-2,-5.270004272E-3,1.508506936E-2
5.978062414E0,-1.131003350E-2,-4.485338926E-3,-1.472377777E-2,1.910038625E-2
5.983083091E0,-6.514392793E-3,-9.332254529E-3,-1.935100555E-2,2.244971501E-2
5.988103768E0,-6.559886038E-3,-9.338781238E-3,-1.444149017E-2,1.840656346E-2
5.993124446E0,2.944655716E-3,-4.596367478E-3,-4.824638367E-3,7.285240329E-3
5.998145123E0,-1.926630735E-3,-1.413856447E-2,4.712104797E-3,1.502713688E-2
6.003165800E0,-6.705418229E-3,-1.405233145E-2,-7.534027100E-5,1.557036701E-2
6.008186477E0,-1.619365811E-2,-1.401913166E-2,-9.572982788E-3,2.346087413E-2
6.013207154E0,-1.808427274E-3,-1.409000158E-2,9.497642517E-3,1.708811772E-2
6.018227831E0,7.657296956E-3,-9.359493852E-3,-8.010864258E-5,1.209300373E-2
6.023248508E0,-6.751038134E-3,-1.411390305E-2,4.669189453E-3,1.632728101E-2
6.028269185E0,7.451698184E-3,-9.279787540E-3,1.887607574E-2,2.231475965E-2
6.033289862E0,-1.165229082E-2,1.583397388E-4,9.220123291E-3,1.485973171E-2
6.038310539E0,-1.160383224E-2,-9.476602077E-3,-5.104064941E-3,1.582739361E-2
6.043331216E0,-1.155424863E-2,-9.481534362E-3,-5.062103271E-3,1.578052739E-2
6.048351893E0,-6.704673171E-3,-4.686012864E-3,4.476547241E-3,9.324743112E-3
6.053372571E0,-1.947425306E-3,-4.678949714E-3,9.187698364E-3,1.049279929E-2
6.058393248E0,2.770185471E-3,-9.472355247E-3,-3.871917725E-4,9.876707899E-3
6.063413925E0,7.449261844E-3,-1.422542334E-2,4.364013672E-3,1.664027603E-2
6.068434602E0,7.340066135E-3,-1.419077814E-2,4.326820374E-3,1.655222431E-2
6.073455279E0,1.672953367E-2,8.948147297E-5,-5.207061768E-3,1.752138111E-2
6.078475956E0,7.046014071E-3,4.827976227E-6,-5.164146423E-3,8.735831150E-3
6.083496633E0,2.191670239E-3,-9.576126933E-3,-3.738403320E-4,9.830838320E-3
6.088517310E0,-1.211844385E-2,-9.579837322E-3,-5.120277405E-3,1.627412686E-2
6.093537987E0,-2.567566931E-3,-1.433239877E-2,-3.299713135E-4,1.456430347E-2
6.098558664E0,-7.289886475E-3,-9.548366070E-3,-3.280639648E-4,1.201754407E-2
6.103579289E0,-1.202476770E-2,-9.500786662E-3,4.423141479E-3,1.595067917E-2
6.108599914E0,-1.191901416E-2,-4.756629467E-3,9.134292603E-3,1.575194349E-2
6.113620539E0,-1.186680794E-2,-1.042783260E-4,9.056091309E-3,1.492798695E-2
6.118641164E0,-7.067285478E-3,4.560768604E-3,-5.266189575E-3,9.923703287E-3
6.123661789E0,-1.649984717E-2,-3.092437983E-4,-9.971618652E-3,1.928143581E-2
6.128682414E0,-1.640869677E-2,-3.901720047E-4,-5.141258240E-3,1.719971221E-2
6.133703039E0,-2.073571086E-3,-9.967833757E-3,-5.099296570E-3,1.138684471E-2
6.138723664E0,-2.104170620E-3,-1.946608722E-2,4.439353943E-3,2.007645260E-2
6.143744289E0,-2.185657620E-3,-3.937631845E-4,1.389980316E-2,1.407610303E-2
6.148764914E0,7.230542600E-3,-9.971395135E-3,9.035110474E-3,1.527555853E-2
6.153785539E0,-1.192274690E-2,-2.421770990E-2,1.370811462E-2,3.027477123E-2
6.158806164E0,-1.187051088E-2,-1.935130358E-2,8.844375610E-3,2.436400949E-2
6.163826789E0,-7.070206106E-3,-9.776934981E-3,4.021644592E-3,1.271809330E-2
6.168847414E0,-7.058411837E-3,-9.831279516E-3,1.348304749E-2,1.811816227E-2
6.173868039E0,-1.174331456E-2,-5.136668682E-3,1.336860657E-2,1.852054113E-2
6.178888664E0,-2.195574343E-3,-5.177766085E-3,-5.737304688E-3,8.034081989E-3
6.183909289E0,-2.596689016E-2,4.278481007E-3,-9.422302246E-4,2.633386758E-2
6.188929914E0,-2.106264234E-3,-5.891770124E-4,-5.682945251E-3,6.089281181E-3
6.193950539E0,-2.186968923E-3,-5.364373326E-3,3.861427307E-3,6.962036706E-3
6.198971164E0,-2.318911254E-3,-1.009975374E-2,-9.183883667E-4,1.040316356E-2
6.203991789E0,2.350650728E-3,-1.484759152E-2,3.837585449E-3,1.551462519E-2
6.209012414E0,2.336613834E-3,-1.000696421E-2,8.553504944E-3,1.337017366E-2
6.214033039E0,-7.226966321E-3,-1.000747085E-2,-1.051235199E-2,1.621382309E-2
6.219053664E0,-2.517268062E-3,-5.311399698E-3,-5.677223206E-3,8.171809382E-3
6.224074289E0,-2.491496503E-3,-6.025284529E-4,-8.821487427E-4,2.710863657E-3
6.229094914E0,-7.267110050E-3,-1.017883420E-2,3.872871399E-3,1.309269594E-2
6.234115539E0,-1.205484569E-2,8.763760328E-3,3.839492798E-3,1.539040301E-2
6.239136164E0,-7.252991199E-3,-5.638673902E-3,-9.422302246E-4,9.235167703E-3
6.244156789E0,-7.239669561E-3,-1.997299492E-2,3.811836243E-3,2.158386984E-2
6.249177414E0,-2.478718758E-3,-1.989087462E-2,-5.718231201E-3,2.084440232E-2
6.254198039E0,-7.253676653E-3,-2.930600941E-2,-5.671501160E-3,3.071846249E-2
6.259218664E0,-7.188431919E-3,-1.015169919E-2,8.620262146E-3,1.513405000E-2
6.264239289E0,-2.427920699E-3,-1.959651709E-2,8.548736572E-3,2.151741569E-2
6.269259914E0,-2.454802394E-3,-1.002010703E-2,8.476257324E-3,1.335198629E-2
6.274280539E0,-7.281862199E-3,4.224985838E-3,-5.840301514E-3,1.024622585E-2
6.279301164E0,-1.201604307E-2,-5.390733480E-3,-5.792617798E-3,1.438748482E-2
6.284321789E0,7.030986249E-3,-2.442370355E-2,8.500099182E-3,2.679932367E-2
6.289342414E0,6.926037371E-3,-1.485858858E-2,3.679275513E-3,1.680133079E-2
6.294363039E0,-1.211938262E-2,-1.486977935E-2,1.789188385E-2,2.623183716E-2
6.299383664E0,-7.317759097E-3,-1.483018696E-2,3.496170044E-3,1.690287693E-2
6.304404289E0,-7.304660976E-3,-1.004242897E-2,-1.282691956E-3,1.248413995E-2
6.309424914E0,-1.209131628E-2,-1.009455323E-2,-1.273155212E-3,1.580255861E-2
6.314445539E0,-1.208957285E-2,-1.009432971E-2,-1.075935364E-2,1.907398634E-2
6.319466164E0,-2.538934350E-3,-6.490200758E-4,-5.923271179E-3,6.477079292E-3
6.324486789E0,2.183601260E-3,-5.527943373E-3,-5.875587463E-3,8.357559478E-3
6.329507414E0,2.170197666E-3,-1.031428576E-2,3.669738770E-3,1.116070030E-2
6.334528039E0,-7.391236722E-3,-5.563348532E-3,-1.060771942E-2,1.407497561E-2
6.339548716E0,-1.212450862E-2,-5.600497127E-3,3.725051880E-3,1.386525473E-2
6.344569393E0,-1.207134873E-2,-1.988364756E-2,-1.055717468E-3,2.328500461E-2
6.349590071E0,-7.270120084E-3,-1.980227232E-2,8.449554443E-3,2.272398744E-2
6.354610748E0,-7.256649435E-3,-1.022414863E-2,-1.118659973E-3,1.258743724E-2
6.359631425E0,-1.194065064E-2,-1.497176290E-2,-1.110076904E-3,1.918241624E-2
6.364652102E0,-7.140509784E-3,-2.442832291E-2,-1.059913635E-2,2.756939484E-2
6.369672779E0,-2.380393445E-3,-1.011547446E-2,-5.764007568E-3,1.188330256E-2
6.374693456E0,-2.407670021E-3,-1.011508703E-2,3.780364990E-3,1.106358984E-2
6.379714133E0,-2.434723079E-3,-1.006279886E-2,3.748893738E-3,1.101099458E-2
6.384734810E0,-7.209286094E-3,-1.481094956E-2,3.716468811E-3,1.688639018E-2
6.389755487E0,-2.394400537E-3,-1.482254267E-2,3.684043884E-3,1.546004865E-2
6.394776164E0,-7.117383182E-3,-1.473063231E-2,3.652572632E-3,1.676275509E-2
6.399796841E0,2.391792834E-3,-1.938839257E-2,1.311874390E-2,2.353150825E-2
6.404817518E0,-7.224164903E-3,-9.813725948E-3,-1.235961914E-3,1.224848470E-2
6.409838196E0,-2.513736486E-3,-1.456394792E-2,-1.225471497E-3,1.483001114E-2
6.414858873E0,6.957858801E-3,-1.457799971E-2,8.279800415E-3,1.815172084E-2
6.419879550E0,2.104245126E-3,-9.791940451E-3,3.461837769E-3,1.059689889E-2
6.424900227E0,-2.761580050E-3,-1.923976839E-2,-1.315116882E-3,1.948138969E-2
6.429920904E0,-7.586859167E-3,-2.386035025E-2,-1.080131531E-2,2.726802447E-2
6.434941581E0,-7.570758462E-3,-9.499937296E-3,-1.546096802E-2,1.966231737E-2
6.439962258E0,-1.710370183E-2,-4.704296589E-3,-5.835533142E-3,1.867405874E-2
6.444982935E0,-1.226056367E-2,-1.424640417E-2,-1.039505005E-3,1.882450594E-2
6.450003612E0,-7.457770407E-3,-4.766926169E-3,-1.032829285E-3,8.911153735E-3
6.455024289E0,-2.694249153E-3,-9.611532092E-3,-5.774497986E-3,1.153192762E-2
6.460044966E0,-7.519319654E-3,-1.906046271E-2,-1.997184753E-2,2.861321549E-2
6.465065643E0,-2.755284309E-3,-9.436622262E-3,-1.030826569E-2,1.424435933E-2
6.470086321E0,-1.232835650E-2,-1.419039071E-2,-1.022243500E-2,2.139751714E-2
6.475106998E0,-7.576137781E-3,-9.407564998E-3,8.856773376E-3,1.497806989E-2
6.480127675E0,-7.612034678E-3,-1.421348751E-2,8.782386780E-3,1.836019108E-2
6.485148352E0,-2.847231925E-3,-9.482383728E-3,-7.896423340E-4,9.932062516E-3
6.490169029E0,-7.619127631E-3,-4.218518734E-5,-5.533218384E-3,9.416442594E-3
6.495189706E0,-1.235202700E-2,-4.926577210E-3,-7.400512695E-4,1.331883666E-2
6.500210383E0,-7.495798171E-3,-1.451835036E-2,-7.362365723E-4,1.635577977E-2
6.505231060E0,-2.679288387E-3,-4.983872175E-3,8.766174316E-3,1.043376156E-2
6.510251737E0,1.992508769E-3,-5.078166723E-3,3.943443298E-3,6.731167322E-3
6.515272414E0,1.928016543E-3,-1.461715996E-2,-1.508426666E-2,2.109297783E-2
6.520293091E0,-1.707725972E-2,-9.830772877E-3,-5.462646484E-3,2.044791925E-2
6.525313768E0,-1.693016291E-2,-9.832769632E-3,1.357555389E-2,2.382455536E-2
6.530334446E0,-2.158469707E-2,-9.834736586E-3,8.712768555E-3,2.526922094E-2
6.535355123E0,-1.195495576E-2,-9.836688638E-3,8.639335632E-3,1.772905893E-2
6.540375800E0,-1.195435971E-2,-5.142033100E-3,-9.307861328E-4,1.304659279E-2
6.545396477E0,-1.190186292E-2,-4.864931107E-4,-5.673408508E-3,1.319388421E-2
6.550417154E0,-1.184903830E-2,-1.011486351E-2,-5.627632141E-3,1.656443226E-2
6.555437831E0,-1.179665327E-2,-1.006217301E-2,3.915786743E-3,1.599192733E-2
6.560458508E0,-1.649320126E-2,-5.209520459E-3,8.632659912E-3,1.933100122E-2
6.565479185E0,-1.165437698E-2,4.246994853E-3,3.810882568E-3,1.297629740E-2
6.570499862E0,-6.855860353E-3,-1.011779904E-2,-1.046752930E-2,1.609167015E-2
6.575520539E0,-1.164625585E-2,-1.011738181E-2,-8.831024170E-4,1.545239658E-2
6.580541216E0,-6.847806275E-3,-1.486547291E-2,-1.037406921E-2,1.937772040E-2
6.585561893E0,-2.089358866E-3,-1.007699966E-2,-1.028823853E-2,1.455194814E-2
6.590582571E0,-1.161606610E-2,-1.482541859E-2,-1.020336151E-2,2.142042516E-2
6.595603196E0,-1.156638563E-2,-1.478578150E-2,8.874893188E-3,2.076449711E-2
6.600623821E0,-6.871655583E-3,-1.474606991E-2,-6.961822510E-4,1.628345473E-2
6.605644446E0,-6.860747933E-3,-4.611909389E-4,-1.018810272E-2,1.229146030E-2
6.610665071E0,-6.849929690E-3,-1.003785431E-2,-5.355834961E-3,1.328024940E-2
6.615685696E0,-2.143368125E-3,-1.003810763E-2,4.185676575E-3,1.108501331E-2
6.620706321E0,-6.973013282E-3,-1.003836095E-2,-5.979537964E-4,1.223720367E-2
6.625726946E0,7.230818272E-3,-1.009091735E-2,1.365184784E-2,1.845221654E-2
6.630747571E0,-2.373561263E-3,-1.019454002E-2,4.037857056E-3,1.121903423E-2
6.635768196E0,-2.452805638E-3,-1.019348204E-2,4.004478455E-3,1.122315372E-2
6.640788821E0,-2.478718758E-3,-1.974095404E-2,3.969192505E-3,2.028802115E-2
6.645809446E0,-7.253676653E-3,-1.016333699E-2,3.934860229E-3,1.309169083E-2
6.650830071E0,-1.193771511E-2,-1.011104882E-2,-8.478164673E-4,1.566719959E-2
6.655850696E0,-2.138310671E-2,-1.011110842E-2,-8.420944214E-4,2.366814080E-2
6.660871321E0,-1.180694252E-2,-1.480734348E-2,-8.354187012E-4,1.895677286E-2
6.665891946E0,-2.311334014E-3,-1.941296458E-2,-1.032447815E-2,2.210882873E-2
6.670912571E0,7.157050073E-3,-9.734690189E-3,-7.400512695E-4,1.210517388E-2
6.675933196E0,2.301774919E-3,-1.923447847E-2,-5.483627319E-3,2.013289593E-2
6.680953821E0,1.173247397E-2,-1.440958679E-2,-6.904602051E-4,1.859472700E-2
6.685974446E0,-7.406413555E-3,-4.928335547E-3,-6.866455078E-4,8.922720161E-3
6.690995071E0,-7.391817868E-3,-9.719684720E-3,8.814811707E-3,1.506028379E-2
6.696015696E0,-1.207318157E-2,-9.722188115E-3,-7.562637329E-4,1.551949064E-2
6.701036321E0,-2.626501024E-3,-9.725078940E-3,8.747100830E-3,1.334119339E-2
6.706056946E0,-1.220064610E-2,-9.727954865E-3,3.925323486E-3,1.609027767E-2
6.711077571E0,-1.214610040E-2,-1.818835735E-4,-8.554458618E-4,1.217754590E-2
6.716098196E0,-7.342725992E-3,-5.012378097E-3,-1.034641266E-2,1.364140074E-2
6.721118821E0,-1.207640022E-2,-3.575086594E-4,-7.648468018E-4,1.210587648E-2
6.726139446E0,-1.202289015E-2,-5.238860846E-3,-1.500606537E-2,1.992931380E-2
6.731160071E0,2.275682986E-3,-1.952460408E-2,-5.385398865E-3,2.038115351E-2
6.736180696E0,-7.286630571E-3,-5.147993565E-3,-5.922317505E-4,8.941340015E-3
6.741201321E0,-7.273025811E-3,-4.404932261E-4,-1.008510590E-2,1.244187685E-2
6.746221946E0,6.986737251E-3,-5.268841982E-3,-1.000213623E-2,1.328976758E-2
6.751242571E0,-1.686034352E-2,-5.599260330E-4,-9.920120239E-3,1.957021937E-2
6.756263196E0,-7.269941270E-3,-1.013617218E-2,-5.089759827E-3,1.347218199E-2
6.761283821E0,2.188615501E-3,-1.013560593E-2,-5.047798157E-3,1.153259778E-2
6.766304446E0,-2.677902579E-3,-5.386963487E-3,-5.005836487E-3,7.826169993E-3
6.771325071E0,-7.554240525E-3,-1.012216508E-2,-2.145767212E-4,1.263213438E-2
6.776345696E0,-2.841047943E-3,-1.486980915E-2,-4.961013794E-3,1.593092701E-2
6.781366321E0,-7.663361728E-3,-1.482897997E-2,9.325981140E-3,1.912066118E-2
6.786386946E0,-1.714209467E-2,-5.343407393E-3,4.497528076E-3,1.851029905E-2
6.791407571E0,-7.497452199E-3,-1.962830126E-2,4.459381104E-3,2.147948044E-2
6.796428196E0,-2.732828259E-3,-1.479972899E-2,-9.823799133E-3,1.797240546E-2
6.801448821E0,-7.505662739E-3,-9.959906340E-3,-9.741783142E-3,1.582520288E-2
6.806469446E0,-7.488705218E-3,-1.465660334E-2,-1.640319824E-4,1.645975801E-2
6.811490071E0,-7.525317371E-3,-2.406348288E-2,-1.630783081E-4,2.521325454E-2
6.816510696E0,1.986503601E-3,-1.914685965E-2,-1.440715790E-2,2.404401442E-2
6.821531321E0,-2.772994339E-3,-1.432229578E-2,-9.539604187E-3,1.743048198E-2
6.826551946E0,-7.493600249E-3,-9.538367391E-3,-9.461402893E-3,1.538351851E-2
6.831572623E0,2.070620656E-3,-4.579126835E-5,1.134872437E-4,2.074233858E-3
6.836593300E0,-7.386937737E-3,-4.929736257E-3,1.096725464E-4,8.881507573E-3
6.841613977E0,-1.206910610E-2,-9.721070528E-3,9.604454041E-3,1.823206164E-2
6.846634654E0,-7.214471698E-3,4.521936178E-3,2.670288086E-5,8.514530035E-3
6.851655331E0,2.295523882E-3,-5.148559809E-3,-4.723548889E-3,7.354523241E-3
6.856676008E0,-2.571880817E-3,-9.938463569E-3,-4.684448242E-3,1.128413419E-2
6.861696685E0,-7.449857891E-3,-1.468804479E-2,4.851341248E-3,1.716899980E-2
6.866717362E0,-7.434122264E-3,-1.464915276E-2,-4.687309265E-3,1.708317062E-2
6.871738039E0,-1.211590320E-2,-1.461099088E-2,4.847526550E-3,1.959016790E-2
6.876758716E0,-1.206205040E-2,-9.824633598E-3,4.806518555E-3,1.628247849E-2
6.881779393E0,-7.259368896E-3,-9.774357080E-3,-4.730224609E-3,1.306183440E-2
6.886800071E0,-7.193326950E-3,-5.027920008E-3,5.722045898E-5,8.776514479E-3
6.891820748E0,-7.231637836E-3,-1.926311851E-2,-4.692077637E-3,2.110402599E-2
6.896841425E0,-1.201813668E-2,-2.388268709E-2,-9.401321411E-3,2.834083972E-2
6.901862102E0,2.280399203E-3,-1.432245970E-2,-9.325027466E-3,1.724207672E-2
6.906882779E0,2.214282751E-3,-9.590417147E-3,2.479553223E-4,9.845843336E-3
6.911903456E0,-7.399402559E-3,-4.793599248E-3,4.994392395E-3,1.013280353E-2
6.916924133E0,-1.213336736E-2,-9.586051106E-3,2.031326294E-4,1.546454791E-2
6.921944810E0,6.914637983E-3,-4.115700722E-5,2.012252808E-4,6.917687760E-3
6.926965487E0,-7.383704185E-3,-9.621724486E-3,1.983642578E-4,1.212996364E-2
6.931986164E0,-2.166745067E-2,-2.387136221E-2,-4.551887512E-3,3.255825597E-2
6.937006841E0,-1.683817059E-2,-1.425972581E-2,2.346038818E-4,2.206623683E-2
6.942027518E0,-2.551361918E-3,-1.902520657E-2,-4.516601562E-3,1.971972673E-2
6.947048196E0,6.919786334E-3,-9.505450726E-3,-9.229660034E-3,1.494736300E-2
6.952068873E0,2.015367150E-3,-4.761233926E-3,-9.152412415E-3,1.051178892E-2
6.957089550E0,-2.900838852E-3,-1.435436308E-2,-1.382541656E-2,2.013963130E-2
6.962110227E0,-1.722118258E-2,-9.622052312E-3,1.478004456E-2,2.464959913E-2
6.967130904E0,-1.722782105E-2,-9.625360370E-3,2.890205383E-2,3.499677265E-2
6.972151581E0,-1.723440737E-2,-1.917755604E-2,1.441478729E-2,2.953962670E-2
6.977172258E0,-7.743932307E-3,-1.915314794E-2,-4.700660706E-3,2.118744379E-2
6.982192935E0,-3.082580864E-3,-1.438124478E-2,-9.410858154E-3,1.746100677E-2
6.987213612E0,-1.275672019E-2,-1.434531808E-2,-1.408100128E-2,2.380749163E-2
6.992234289E0,1.443408430E-3,-6.458163261E-5,5.030632019E-3,5.234009667E-3
6.997254966E0,1.332364976E-3,-1.998543739E-4,9.736061096E-3,9.828836344E-3
7.002275643E0,-3.578908741E-3,-5.082920194E-3,9.654045105E-3,1.148238879E-2
7.007296321E0,9.958297014E-4,-5.176797509E-3,4.824638367E-3,7.146190916E-3
7.012316998E0,-1.351192594E-2,-4.686564207E-4,-4.711151123E-3,1.431735752E-2
7.017337675E0,-1.845367253E-2,-1.009716094E-2,-4.672050476E-3,2.154805663E-2
7.022358352E0,-1.380458474E-2,-1.019990444E-2,-1.413059235E-2,2.223236943E-2
7.027379029E0,3.012418747E-4,-2.924472094E-2,-9.263992310E-3,3.067842895E-2
7.032399706E0,-4.600673914E-3,-5.394339561E-3,3.089904785E-4,7.096518504E-3
7.037420383E0,-4.713244736E-3,-7.885843515E-4,9.801864624E-3,1.090472793E-2
7.042441060E0,-4.772976041E-3,-1.041483879E-2,2.222061157E-4,1.145860126E-2
7.047461737E0,-1.432921737E-2,-1.510855556E-2,4.968643188E-3,2.140752991E-2
7.052482414E0,-1.436147839E-2,-1.506698132E-2,1.442432404E-2,2.532443704E-2
7.057503091E0,-1.914044470E-2,-5.476027727E-3,1.430511475E-2,2.451488957E-2
7.062523768E0,-4.834450781E-3,-5.566209555E-3,-6.008148193E-5,7.372802245E-3
7.067544446E0,-4.012137651E-5,-5.655229092E-3,4.687309265E-3,7.345345053E-3
7.072565123E0,-3.423541784E-5,-1.988519728E-2,-4.849433899E-3,2.046800557E-2
7.077585800E0,4.720106721E-3,-1.030598581E-2,-9.558677673E-3,1.482771290E-2
7.082606477E0,4.738986492E-3,-1.025126874E-2,-9.479522705E-3,1.474475685E-2
7.087627102E0,-4.422664642E-5,-5.397453904E-3,4.844665527E-3,7.252947588E-3
7.092647727E0,-4.788324237E-3,-5.436807871E-3,-4.693984985E-3,8.632521292E-3
7.097668352E0,-9.440228343E-3,-2.446940541E-2,-1.415348053E-2,2.980252881E-2
7.102688977E0,4.941396415E-3,-2.429708838E-2,-4.539489746E-3,2.520660369E-2
7.107709602E0,4.905767739E-3,-1.457729936E-2,4.995346069E-3,1.617150877E-2
7.112730227E0,4.921570420E-3,-2.942234278E-4,2.031326294E-4,4.934540069E-3
7.117750852E0,-9.308256209E-3,-9.924590588E-3,4.946708679E-3,1.447795078E-2
7.122771477E0,-4.424735904E-3,-2.411897480E-2,-4.592895508E-3,2.494790417E-2
7.127792102E0,-9.130813181E-3,-1.440067589E-2,1.935958862E-4,1.705252752E-2
7.132812727E0,-9.049177170E-3,-1.487135887E-5,1.443767548E-2,1.703919898E-2
7.137833352E0,-9.020887315E-3,-9.595677257E-3,9.568214417E-3,1.627894828E-2
7.142853977E0,4.530251026E-4,-1.434771717E-2,-9.505271912E-3,1.721663189E-2
7.147874602E0,-9.094856679E-3,-2.855756879E-2,-1.417541504E-2,3.315408790E-2
7.152895227E0,-9.013518691E-3,-1.890608668E-2,-9.309768677E-3,2.292063319E-2
7.157915852E0,-4.185132682E-3,-4.586935043E-3,-1.873016357E-2,1.973257044E-2
7.162936477E0,-1.844363660E-2,-4.633024335E-3,4.186630249E-4,1.902124928E-2
7.167957102E0,-4.091553390E-3,9.567186236E-3,-4.334449768E-3,1.127205910E-2
7.172977727E0,-4.104577005E-3,-4.841938615E-3,4.491806030E-4,6.363464870E-3
7.177998352E0,5.431413651E-3,-1.438248158E-2,1.469039917E-2,2.126414490E-2
7.183018977E0,-4.106074572E-3,-4.849538207E-3,5.069732666E-3,8.128964172E-3
7.188039602E0,-8.815571666E-3,-4.893034697E-3,1.452350616E-2,1.768016752E-2
7.193060227E0,-8.736558259E-3,-2.862633765E-2,1.440143585E-2,3.321439465E-2
7.198080852E0,-8.710868657E-3,-1.897470653E-2,-1.421070099E-2,2.525594471E-2
7.203101477E0,-3.936901689E-3,-1.420389116E-2,-1.409435272E-2,2.039363866E-2
7.208122102E0,-8.648559451E-3,-1.422175765E-2,5.015373230E-3,1.738418649E-2
7.213142727E0,-1.332098246E-2,-1.418755949E-2,9.720802307E-3,2.175383679E-2
7.218163352E0,-1.315252483E-2,-1.415282488E-2,4.889488220E-3,1.992983835E-2
7.223183977E0,-8.288860321E-3,-1.411837339E-2,4.847526550E-3,1.707431364E-2
7.228204602E0,-3.465741873E-3,-9.335726500E-3,1.430320740E-2,1.742839344E-2
7.233225227E0,1.317180693E-3,-9.341433644E-3,4.686355591E-3,1.053372091E-2
7.238245852E0,-1.768224686E-2,-4.546687007E-3,-9.598731995E-3,2.062692107E-2
7.243266477E0,-1.278008521E-2,-4.591882229E-3,-1.426792145E-2,1.969745016E-2
7.248287102E0,-1.746843010E-2,-1.413409412E-2,4.843711853E-3,2.298652238E-2
7.253307727E0,-3.124475479E-3,-1.879683137E-2,-4.693984985E-3,1.962439073E-2
7.258328352E0,-3.040984273E-3,-4.478186369E-3,4.839897156E-3,7.261290724E-3
7.263348977E0,-7.757820189E-3,-1.407285035E-2,-4.699707031E-3,1.674264427E-2
7.268369602E0,-2.939127386E-3,-9.290575981E-3,4.835128784E-3,1.087803945E-2
7.273390227E0,1.838639379E-3,-9.297072887E-3,4.794120789E-3,1.062072282E-2
7.278410852E0,1.828096807E-3,-1.405201852E-2,1.424980164E-2,2.009621878E-2
7.283431477E0,1.766517758E-3,-4.521429539E-3,9.381294250E-3,1.056279281E-2
7.288452102E0,-7.792308927E-3,-1.411655545E-2,-1.955032349E-4,1.612561434E-2
7.293472727E0,-7.774487138E-3,-9.438127279E-3,-1.964569092E-4,1.222945183E-2
7.298493352E0,-3.008320928E-3,-9.443387389E-3,4.552841187E-3,1.090669166E-2
7.303513977E0,-7.778860629E-3,-1.894561946E-2,-2.346038818E-4,2.048175306E-2
7.308534602E0,-1.250966638E-2,1.223534346E-4,4.514694214E-3,1.329996944E-2
7.313555227E0,-7.704026997E-3,-9.459584951E-3,-5.021095276E-3,1.319269408E-2
7.318575852E0,-7.686942816E-3,-4.716172814E-3,4.516601562E-3,1.008618191E-2
7.323596529E0,-7.670000196E-3,-1.900629699E-2,9.226799011E-3,2.247670012E-2
7.328617206E0,-1.240094006E-2,-9.434416890E-3,4.400253296E-3,1.619116319E-2
7.333637883E0,1.901552081E-3,-1.893630624E-2,-1.463127136E-2,2.400570132E-2
7.338658560E0,-7.710307837E-3,-9.365409613E-3,4.484176636E-3,1.293319698E-2
7.343679237E0,-1.244243979E-2,-4.571273923E-3,-5.050659180E-3,1.418520396E-2
7.348699914E0,-2.836965024E-3,-9.313687682E-3,-2.613067627E-4,9.739683261E-3
7.353720591E0,-1.235744357E-2,-9.319990873E-3,-5.008697510E-3,1.626824183E-2
7.358741268E0,-1.235348731E-2,-1.407474279E-2,-2.183914185E-4,1.872844703E-2
7.363761946E0,-7.549144328E-3,-1.409326494E-2,4.529953003E-3,1.661716495E-2
7.368782623E0,-7.533349097E-3,-1.880824566E-2,1.873683929E-2,2.759656863E-2
7.373803300E0,-2.176319063E-2,2.066791058E-4,4.333496094E-3,2.219140309E-2
7.378823977E0,-2.634190023E-3,-4.678949714E-3,1.379203796E-2,1.480039995E-2
7.383844654E0,-7.407091558E-3,-9.471952915E-3,8.927345276E-3,1.497599383E-2
7.388865331E0,-1.214022934E-2,-1.422502100E-2,4.103660583E-3,1.914618555E-2
7.393886008E0,-2.640314400E-3,-1.418998837E-2,4.069328308E-3,1.499621496E-2
7.398906685E0,-7.413163781E-3,-9.406745434E-3,-7.143020630E-4,1.199800335E-2
7.403927362E0,-2.598106861E-3,-4.611864686E-3,-7.095336914E-4,5.340682841E-3
7.408948039E0,-1.206791401E-2,-4.656940699E-3,-7.047653198E-4,1.295447179E-2
7.413968716E0,-7.213287055E-3,-1.894713938E-2,-6.999969482E-4,2.028584720E-2
7.418989393E0,-7.200300694E-3,1.704692841E-5,4.051208496E-3,8.261774080E-3
7.424010071E0,2.257667482E-3,-1.189112663E-4,4.016876221E-3,4.609392251E-3
7.429030748E0,1.163683087E-2,-5.002245307E-3,-7.658004761E-4,1.268955244E-2
7.434051425E0,-2.805434167E-3,-9.845286608E-3,-1.025772095E-2,1.449210020E-2
7.439072102E0,-7.577672601E-3,-1.929225028E-2,-6.752014160E-4,2.073807946E-2
7.444092779E0,-1.231016219E-2,-1.921540499E-2,8.826255798E-3,2.446782935E-2
7.449113456E0,-2.757698298E-3,-1.913920045E-2,-7.448196411E-4,1.935119247E-2
7.454134133E0,-2.833746374E-3,-9.514704347E-3,8.758544922E-3,1.323902664E-2
7.459154810E0,-2.190315723E-2,-2.232193947E-5,8.685112000E-3,2.356225723E-2
7.464175487E0,-2.773761749E-3,-9.603053331E-3,1.336002350E-2,1.668540127E-2
7.469196164E0,-7.545500994E-3,-1.910354197E-2,-9.975433350E-4,2.056392457E-2
7.474216841E0,1.915343106E-3,-8.615851402E-5,3.758430481E-3,4.219213455E-3
7.479237518E0,-7.695868611E-3,9.328052402E-3,-1.051807404E-2,1.602712815E-2
7.484258196E0,-2.192436159E-2,-9.775683284E-3,-1.992702484E-2,3.119820401E-2
7.489278873E0,-7.595188916E-3,-9.778141975E-3,-5.515098572E-3,1.355416052E-2
7.494299550E0,-7.630921900E-3,-9.832486510E-3,8.775711060E-3,1.522898108E-2
7.499320227E0,-1.236219704E-2,-5.085557699E-3,8.701324463E-3,1.594991725E-2
7.504340904E0,-1.230630279E-2,-1.937259734E-2,1.337623596E-2,2.656438037E-2
7.509361581E0,-2.754628658E-3,-9.850382805E-3,-9.822845459E-4,1.027535417E-2
7.514382258E0,-1.227656752E-2,-1.460111141E-2,3.773689270E-3,1.944600975E-2
7.519402935E0,-1.697064191E-2,-1.936417818E-2,-1.008033752E-3,2.576800760E-2
7.524423612E0,-7.378570735E-3,-1.453781128E-2,3.747940063E-3,1.672836865E-2
7.529444289E0,2.080880105E-3,-1.450058818E-2,8.464813232E-3,1.691892971E-2
7.534464966E0,-7.480576634E-3,-1.926408708E-2,3.643989563E-3,2.098434506E-2
7.539485643E0,-7.516495883E-3,-4.993468523E-3,3.612518311E-3,9.720222570E-3
7.544506321E0,-2.802863717E-3,-9.783461690E-3,8.331298828E-3,1.315228907E-2
7.549526998E0,-1.232363284E-2,-1.453435421E-2,3.512382507E-3,1.937669243E-2
7.554547675E0,-1.226805896E-2,-5.000159144E-3,3.481864929E-3,1.369781900E-2
7.559568352E0,-1.690953225E-2,-1.453940570E-2,-6.045341492E-3,2.310568659E-2
7.564589029E0,-1.206801087E-2,-1.455447078E-2,8.248329163E-3,2.062775896E-2
7.569609706E0,-7.266059518E-3,-9.768590331E-3,3.430366516E-3,1.264865180E-2
7.574630331E0,-1.205228269E-2,-1.926769316E-2,-6.094932556E-3,2.352976244E-2
7.579650956E0,-1.679860055E-2,-9.641736746E-3,-1.079273224E-2,2.217293705E-2
7.584671581E0,-1.195724308E-2,-4.844903946E-3,3.542900085E-3,1.337912170E-2
7.589692206E0,-7.156215608E-3,-1.399219036E-4,-1.235961914E-3,7.263511673E-3
7.594712831E0,-7.091790438E-3,-1.446816325E-2,-1.072406769E-2,1.935528009E-2
7.599733456E0,-2.278640866E-3,-1.917961240E-2,-1.138687134E-3,1.934803205E-2
7.604754081E0,7.190227509E-3,-9.606674314E-3,-5.878448486E-3,1.336202528E-2
7.609774706E0,2.334676683E-3,-1.441092789E-2,-1.082420349E-3,1.463889312E-2
7.614795331E0,-1.202853769E-2,-4.877343774E-3,8.423805237E-3,1.547367752E-2
7.619815956E0,-2.478420734E-3,-1.446950436E-2,1.310062408E-2,1.967575861E-2
7.624836581E0,-1.200189441E-2,-1.873224974E-4,3.493309021E-3,1.250135061E-2
7.629857206E0,-1.669749618E-2,-2.696663141E-4,3.462791443E-3,1.705491199E-2
7.634877831E0,-2.307295799E-3,-5.099430680E-3,-1.315116882E-3,5.749551251E-3
7.639898456E0,2.465218306E-3,-9.889334440E-3,-6.053924561E-3,1.185437639E-2
7.644919081E0,-2.298265696E-3,-1.463893056E-2,-6.004333496E-3,1.598850630E-2
7.649939706E0,-2.326995134E-3,-9.852766991E-3,1.303863525E-2,1.650751141E-2
7.654960331E0,-1.190439612E-2,-9.854972363E-3,8.181571960E-3,1.748637318E-2
7.659980956E0,-7.103808224E-3,-5.056366324E-3,3.364562988E-3,9.346187233E-3
7.665001581E0,-7.142119110E-3,-5.097329617E-3,-6.160736084E-3,1.072134804E-2
7.670022206E0,-7.128953934E-3,-1.938386261E-2,3.386497498E-3,2.092903436E-2
7.675042831E0,-7.117427886E-3,-1.930664480E-2,8.106231689E-3,2.211595138E-2
7.680063456E0,-7.105998695E-3,-1.442967355E-2,8.038520813E-3,1.798133791E-2
7.685084081E0,-1.184164733E-2,-4.895940423E-3,-1.526832581E-3,1.290449773E-2
7.690104706E0,-1.184123755E-2,-1.382380724E-4,-1.514434814E-3,1.193848940E-2
7.695125331E0,2.404674888E-3,-2.205967903E-4,3.246307373E-3,4.045940659E-3
7.700145956E0,7.086023688E-3,-1.929667592E-2,-1.530647278E-3,2.061349835E-2
7.705166581E0,6.928704679E-3,-1.916748285E-2,7.979393005E-3,2.188766914E-2
7.710187206E0,6.824612617E-3,-1.434275508E-2,3.163337708E-3,1.619557551E-2
7.715207831E0,-1.222071052E-2,-1.430673897E-2,-6.361007690E-3,1.986179661E-2
7.720228456E0,-1.216675341E-2,-4.774838686E-3,3.188133240E-3,1.345337008E-2
7.725249081E0,-7.364735007E-3,-9.567856789E-3,3.160476685E-3,1.248085807E-2
7.730269706E0,-2.601988614E-3,-1.912094653E-2,7.881164551E-3,2.084451236E-2
7.735290331E0,-2.627432346E-3,-1.429702342E-2,-1.117897034E-2,1.833787493E-2
7.740310956E0,-2.703800797E-3,-9.512886405E-3,-1.588821411E-3,1.001648142E-2
7.745331581E0,-1.222539693E-2,-1.426602900E-2,-1.576423645E-3,1.885378013E-2
7.750352206E0,-2.672865987E-3,-9.482160211E-3,-1.581001282E-2,1.862826026E-2
7.755372831E0,-1.224510372E-2,-4.115700722E-5,-1.433372498E-3,1.232877997E-2
7.760393456E0,-1.218941808E-2,-9.673237801E-3,8.073806763E-3,1.753110944E-2
7.765414081E0,-2.586044371E-3,-4.979968071E-3,8.004188538E-3,9.775210567E-3
7.770434706E0,2.084203064E-3,-1.926828921E-2,3.189086914E-3,1.964131225E-2
7.775455331E0,-7.529951632E-3,-9.643137455E-3,7.910728455E-3,1.456948511E-2
7.780475956E0,-7.565468550E-3,-9.646281600E-3,7.844924927E-3,1.455437770E-2
7.785496581E0,-1.229728758E-2,-1.439790428E-2,2.202415466E-2,2.904455746E-2
7.790517206E0,-2.796068788E-3,-1.916186512E-2,-6.650924683E-3,2.047510377E-2
7.795537831E0,-1.236957312E-2,-1.444220543E-4,2.900123596E-3,1.270582204E-2
7.800558456E0,-1.706287265E-2,-4.976063967E-3,-1.873016357E-3,1.787207391E-2
7.805579081E0,-1.221930981E-2,-9.715110064E-3,-1.135444641E-2,1.930332482E-2
7.810599758E0,-7.416099310E-3,-1.691728830E-4,-1.762390137E-3,7.624510964E-3
7.815620435E0,-7.401421666E-3,-1.919379830E-2,3.001213074E-3,2.078918507E-2
7.820641112E0,-7.386863232E-3,-9.568870068E-3,-1.771926880E-3,1.221755899E-2
7.825661789E0,-7.321275771E-3,-9.521543980E-3,-1.758575439E-3,1.213892360E-2
7.830682466E0,-2.611562610E-3,-4.778027534E-3,-1.124095917E-2,1.249035505E-2
7.835703143E0,-2.740748227E-3,-2.172589302E-5,-1.648902893E-3,3.198601821E-3
7.840723821E0,-7.721938193E-3,-1.429946721E-2,-6.381988525E-3,1.745946360E-2
7.845744498E0,-7.913112640E-3,-1.901315153E-2,-1.107597351E-2,2.338363684E-2
7.850765175E0,-3.352671862E-3,-1.893821359E-2,-1.573085785E-2,2.484665432E-2
7.855785852E0,-1.312916726E-2,-1.406431198E-2,-1.559829712E-2,2.476866523E-2
7.860806529E0,-1.343177259E-2,-1.878036559E-2,-5.969047546E-3,2.384835791E-2
7.865827206E0,-9.034484625E-3,-2.340479195E-2,-1.066493988E-2,2.726072525E-2
7.870847883E0,-9.422346950E-3,-8.996680379E-3,-1.532173157E-2,2.011159710E-2
7.875868560E0,-9.858109057E-3,-8.901819587E-3,-5.692481995E-3,1.445091891E-2
7.880889237E0,-1.514179260E-2,-1.355582476E-2,3.857612610E-3,2.068611715E-2
7.885909914E0,-2.053715289E-2,8.229464293E-4,-2.940750122E-2,3.587830845E-2
7.890930591E0,-1.174660772E-2,-8.661031723E-3,-4.340076447E-2,4.578889188E-2
7.895951268E0,-1.257818937E-2,1.031845808E-3,-4.777812958E-2,4.941685158E-2
7.900971946E0,-8.810006082E-3,-3.549665213E-3,-5.686569214E-2,5.765347581E-2
7.905992623E0,-9.769007564E-3,-3.292173147E-3,-6.112766266E-2,6.199083041E-2
7.911013300E0,-1.077185571E-2,1.763567328E-3,-2.261734009E-2,2.511348478E-2
7.916033977E0,1.197541505E-2,1.976311207E-3,-1.291847229E-2,1.772578060E-2
7.921054654E0,1.345515251E-3,-2.509325743E-3,6.196022034E-3,6.818930709E-3
7.926075331E0,-4.447288811E-3,-7.009461522E-3,1.090526581E-2,1.370531835E-2
7.931096008E0,8.905947208E-3,-1.616872847E-2,2.982044220E-2,3.507139075E-2
7.936116685E0,1.291035861E-2,-3.005203605E-2,4.857540131E-2,5.856083881E-2
7.941137362E0,7.591187954E-3,-2.018141747E-2,6.242179871E-2,6.604087143E-2
7.946158039E0,1.196979731E-2,-1.514108479E-2,7.615184784E-2,7.855973794E-2
7.951178716E0,1.166721433E-2,-1.494313776E-2,5.652618408E-2,5.962072411E-2
