"Time (s)","Acceleration x (m/s^2)","Acceleration y (m/s^2)","Acceleration z (m/s^2)","Absolute acceleration (m/s^2)"
2.224860300E-2,1.310825497E-1,3.250128925E-1,9.670779228E0,9.677126996E0
2.475240500E-2,1.262941360E-1,3.058592677E-1,9.665990829E0,9.671653365E0
2.725902000E-2,1.502361596E-1,3.106476665E-1,9.718663216E0,9.724787277E0
2.976886300E-2,1.358709484E-1,3.154360652E-1,9.785700798E0,9.791726147E0
3.228224900E-2,9.756372124E-2,3.345896900E-1,9.867103577E0,9.873256906E0
3.479928000E-2,7.362170517E-2,3.106476665E-1,9.905410767E0,9.910554202E0
3.731995700E-2,5.925649032E-2,3.154360652E-1,9.943717957E0,9.948896323E0
3.984407200E-2,4.010287672E-2,3.106476665E-1,9.962871552E0,9.967794127E0
4.237131100E-2,3.531447425E-2,3.202244639E-1,9.982025146E0,9.987222679E0
4.490125900E-2,5.925649032E-2,3.202244639E-1,9.948506355E0,9.953835127E0
4.743339500E-2,6.883329898E-2,3.058592677E-1,9.895833969E0,9.900798850E0
4.996714500E-2,1.119289324E-1,2.867056429E-1,9.838373184E0,9.843186228E0
5.250193600E-2,1.454477459E-1,2.914940715E-1,9.785700798E0,9.791121690E0
5.503714500E-2,1.646013707E-1,2.867056429E-1,9.747393608E0,9.752998302E0
5.756777000E-2,1.646013707E-1,2.914940715E-1,9.742605209E0,9.748354665E0
6.008756100E-2,1.741781682E-1,3.010708690E-1,9.747393608E0,9.753597483E0
6.260724900E-2,1.789665818E-1,3.058592677E-1,9.761758804E0,9.768188874E0
6.512693600E-2,1.598129570E-1,3.154360652E-1,9.771335602E0,9.777731820E0
6.764662400E-2,1.406593472E-1,3.058592677E-1,9.780912399E0,9.786704364E0
7.016631100E-2,1.167173311E-1,3.106476665E-1,9.824007988E0,9.829611277E0
7.268589500E-2,9.756372124E-2,3.154360652E-1,9.847949982E0,9.853483518E0
7.520547800E-2,1.023521200E-1,3.154360652E-1,9.824007988E0,9.829603696E0
7.772506100E-2,1.023521200E-1,3.202244639E-1,9.819219589E0,9.824972926E0
8.024464500E-2,1.023521200E-1,3.250128925E-1,9.800065994E0,9.805988111E0
8.276428000E-2,1.167173311E-1,3.250128925E-1,9.780912399E0,9.787006880E0
8.528396700E-2,1.215057373E-1,3.345896900E-1,9.752182007E0,9.758676539E0
8.780370700E-2,1.167173311E-1,3.393780887E-1,9.718663216E0,9.725287406E0
9.032349900E-2,1.119289324E-1,3.298012912E-1,9.713874817E0,9.720116303E0
9.284334200E-2,1.310825497E-1,3.345896900E-1,9.709086418E0,9.715734248E0
9.536318600E-2,1.119289324E-1,3.345896900E-1,9.718663216E0,9.725065195E0
9.788303000E-2,1.215057373E-1,3.489548862E-1,9.733028412E0,9.740039796E0
1.004028740E-1,1.167173311E-1,3.489548862E-1,9.752182007E0,9.759121187E0
1.029227170E-1,1.119289324E-1,3.393780887E-1,9.761758804E0,9.768297729E0
1.054425610E-1,9.277531505E-2,3.489548862E-1,9.780912399E0,9.787574987E0
1.079624050E-1,7.841010392E-2,3.585317135E-1,9.809642792E0,9.816505735E0
1.104822490E-1,5.446808785E-2,3.585317135E-1,9.828796387E0,9.835484237E0
1.130020920E-1,5.446808785E-2,3.728969097E-1,9.824007988E0,9.831233484E0
1.155219360E-1,6.404489279E-2,3.681085110E-1,9.814431190E0,9.821540878E0
1.180417800E-1,5.446808785E-2,3.393780887E-1,9.824007988E0,9.830019187E0
1.205616240E-1,6.404489279E-2,3.489548862E-1,9.833584785E0,9.839982774E0
1.230814670E-1,6.883329898E-2,3.441664875E-1,9.819219589E0,9.825490417E0
1.256013110E-1,8.319851011E-2,3.537433147E-1,9.785700798E0,9.792445886E0
1.281210510E-1,8.798690885E-2,3.537433147E-1,9.776124001E0,9.782917586E0
1.306405820E-1,7.362170517E-2,3.345896900E-1,9.776124001E0,9.782125070E0
1.331601130E-1,7.362170517E-2,3.298012912E-1,9.761758804E0,9.767605848E0
1.356794880E-1,7.362170517E-2,3.345896900E-1,9.761758804E0,9.767768700E0
1.381988630E-1,7.362170517E-2,3.202244639E-1,9.780912399E0,9.786429953E0
1.407182380E-1,8.319851011E-2,3.106476665E-1,9.809642792E0,9.814912922E0
1.432376130E-1,7.841010392E-2,3.250128925E-1,9.804854393E0,9.810553052E0
1.457570400E-1,6.883329898E-2,3.202244639E-1,9.785700798E0,9.791180819E0
1.482765200E-1,8.798690885E-2,3.250128925E-1,9.785700798E0,9.791491980E0
1.507960510E-1,9.277531505E-2,3.202244639E-1,9.785700798E0,9.791378405E0
1.533156340E-1,8.798690885E-2,3.106476665E-1,9.785700798E0,9.791025675E0
1.558352700E-1,9.756372124E-2,3.202244639E-1,9.780912399E0,9.786639349E0
1.583549570E-1,1.023521200E-1,3.010708690E-1,9.776124001E0,9.781294398E0
1.608746970E-1,1.023521200E-1,2.962824702E-1,9.776124001E0,9.781148181E0
1.633944880E-1,1.071405262E-1,3.106476665E-1,9.780912399E0,9.786430832E0
1.659143320E-1,9.756372124E-2,2.962824702E-1,9.785700798E0,9.790671177E0
1.684342280E-1,1.119289324E-1,2.867056429E-1,9.785700798E0,9.790539736E0
1.709541760E-1,1.071405262E-1,2.914940715E-1,9.780912399E0,9.785841571E0
1.734741760E-1,1.167173311E-1,2.819172442E-1,9.776124001E0,9.780884456E0
1.759942280E-1,1.071405262E-1,2.723404467E-1,9.766547203E0,9.770931004E0
1.785143320E-1,1.167173311E-1,2.771288455E-1,9.771335602E0,9.775961476E0
1.810344880E-1,1.071405262E-1,2.627636492E-1,9.771335602E0,9.775455144E0
1.835546970E-1,9.756372124E-2,2.819172442E-1,9.771335602E0,9.775888474E0
1.860749570E-1,1.023521200E-1,2.914940715E-1,9.776124001E0,9.781004306E0
1.885952700E-1,9.756372124E-2,2.962824702E-1,9.790489197E0,9.795457146E0
1.911155820E-1,8.798690885E-2,2.962824702E-1,9.785700798E0,9.790580427E0
1.936358950E-1,1.023521200E-1,2.914940715E-1,9.785700798E0,9.790576329E0
1.961562070E-1,1.071405262E-1,3.202244639E-1,9.785700798E0,9.791525055E0
1.986765200E-1,8.798690885E-2,3.154360652E-1,9.780912399E0,9.786393052E0
2.011968320E-1,1.023521200E-1,3.010708690E-1,9.795277596E0,9.800437888E0
2.037171450E-1,9.277531505E-2,3.058592677E-1,9.785700798E0,9.790919122E0
2.062374570E-1,8.319851011E-2,3.010708690E-1,9.814431190E0,9.819400453E0
2.087575090E-1,7.362170517E-2,3.010708690E-1,9.809642792E0,9.814537968E0
2.112767800E-1,8.319851011E-2,3.106476665E-1,9.804854393E0,9.810127096E0
2.137960510E-1,9.277531505E-2,3.154360652E-1,9.804854393E0,9.810365785E0
2.163153220E-1,9.277531505E-2,2.962824702E-1,9.790489197E0,9.795410623E0
2.188345920E-1,9.756372124E-2,3.010708690E-1,9.785700798E0,9.790817252E0
2.213538630E-1,8.798690885E-2,3.202244639E-1,9.795277596E0,9.800905498E0
2.238731340E-1,9.756372124E-2,3.298012912E-1,9.790489197E0,9.796528277E0
2.263924570E-1,9.277531505E-2,3.298012912E-1,9.795277596E0,9.801267231E0
2.289118320E-1,9.756372124E-2,3.441664875E-1,9.819219589E0,9.825733692E0
2.314313110E-1,1.071405262E-1,3.393780887E-1,9.771335602E0,9.777814481E0
2.339508950E-1,1.071405262E-1,3.345896900E-1,9.780912399E0,9.787220071E0
2.364705820E-1,8.798690885E-2,3.489548862E-1,9.795277596E0,9.801886267E0
2.389903220E-1,9.277531505E-2,3.585317135E-1,9.780912399E0,9.787921108E0
2.415101130E-1,8.798690885E-2,3.585317135E-1,9.780912399E0,9.787876892E0
2.440299570E-1,9.756372124E-2,3.776853085E-1,9.771335602E0,9.779118790E0
2.465498530E-1,1.023521200E-1,3.872621357E-1,9.795277596E0,9.803464239E0
2.490698010E-1,9.756372124E-2,3.824737072E-1,9.795277596E0,9.803227427E0
2.515898010E-1,9.756372124E-2,3.824737072E-1,9.790489197E0,9.798442913E0
2.541098530E-1,1.023521200E-1,3.920505345E-1,9.785700798E0,9.794085955E0
2.566299570E-1,1.071405262E-1,3.872621357E-1,9.785700798E0,9.793946659E0
2.591501130E-1,1.215057373E-1,3.824737072E-1,9.795277596E0,9.803494936E0
2.616702700E-1,1.167173311E-1,4.016273320E-1,9.800065994E0,9.808986744E0
2.641904260E-1,1.167173311E-1,4.159925580E-1,9.790489197E0,9.800017931E0
2.667105820E-1,1.215057373E-1,4.207809567E-1,9.785700798E0,9.795496943E0
2.692307380E-1,1.167173311E-1,4.303577542E-1,9.790489197E0,9.800638216E0
2.717504780E-1,1.167173311E-1,4.351461530E-1,9.804854393E0,9.815199681E0
2.742702170E-1,1.023521200E-1,4.255693555E-1,9.814431190E0,9.824186726E0
2.767899570E-1,1.023521200E-1,4.303577542E-1,9.828796387E0,9.838745965E0
2.793096970E-1,9.756372124E-2,4.207809567E-1,9.819219589E0,9.828715513E0
2.818292280E-1,1.023521200E-1,4.064157307E-1,9.795277596E0,9.804239536E0
2.843487590E-1,9.277531505E-2,4.016273320E-1,9.785700798E0,9.794378586E0
2.868682900E-1,9.277531505E-2,4.112041295E-1,9.814431190E0,9.823479816E0
2.893878740E-1,8.798690885E-2,3.968389332E-1,9.814431190E0,9.822844925E0
2.919075090E-1,8.798690885E-2,4.159925580E-1,9.804854393E0,9.814069552E0
2.944272490E-1,9.277531505E-2,4.016273320E-1,9.790489197E0,9.799162744E0
2.969470920E-1,1.119289324E-1,3.968389332E-1,9.776124001E0,9.784815261E0
2.994670400E-1,9.756372124E-2,4.016273320E-1,9.766547203E0,9.775288613E0
3.019870920E-1,9.277531505E-2,3.968389332E-1,9.766547203E0,9.775046428E0
3.045071970E-1,8.319851011E-2,3.968389332E-1,9.771335602E0,9.779744505E0
3.070273530E-1,9.277531505E-2,3.776853085E-1,9.785700798E0,9.793426038E0
3.095475610E-1,8.798690885E-2,3.728969097E-1,9.785700798E0,9.793198349E0
3.120677700E-1,8.319851011E-2,3.585317135E-1,9.776124001E0,9.783050008E0
3.145879780E-1,8.319851011E-2,3.441664875E-1,9.766547203E0,9.772963564E0
3.171081860E-1,8.319851011E-2,3.393780887E-1,9.761758804E0,9.768010772E0
3.196280300E-1,8.319851011E-2,3.298012912E-1,9.780912399E0,9.786824727E0
3.221476650E-1,8.798690885E-2,3.298012912E-1,9.790489197E0,9.796437582E0
3.246673010E-1,7.362170517E-2,3.106476665E-1,9.780912399E0,9.786121269E0
3.271869360E-1,6.883329898E-2,3.250128925E-1,9.780912399E0,9.786552956E0
3.297065720E-1,8.798690885E-2,3.202244639E-1,9.790489197E0,9.796119850E0
3.322262070E-1,9.756372124E-2,3.106476665E-1,9.795277596E0,9.800687926E0
3.347458420E-1,9.756372124E-2,2.962824702E-1,9.790489197E0,9.795457146E0
3.372654780E-1,9.277531505E-2,2.914940715E-1,9.771335602E0,9.776122723E0
3.397851130E-1,9.277531505E-2,2.771288455E-1,9.776124001E0,9.780491201E0
3.423047490E-1,8.798690885E-2,2.867056429E-1,9.795277596E0,9.799867601E0
3.448244360E-1,8.319851011E-2,2.675520480E-1,9.771335602E0,9.775351939E0
3.473441760E-1,8.798690885E-2,2.436100245E-1,9.795277596E0,9.798701481E0
3.498639670E-1,9.277531505E-2,2.340332121E-1,9.790489197E0,9.793725416E0
3.523838110E-1,9.277531505E-2,2.244564146E-1,9.785700798E0,9.788714321E0
3.549037070E-1,9.277531505E-2,2.292448133E-1,9.800065994E0,9.803185907E0
3.574236550E-1,7.841010392E-2,2.340332121E-1,9.795277596E0,9.798386748E0
3.599437070E-1,7.362170517E-2,2.292448133E-1,9.795277596E0,9.798236398E0
3.624638630E-1,8.798690885E-2,2.244564146E-1,9.800065994E0,9.803030953E0
3.649841240E-1,9.756372124E-2,2.292448133E-1,9.795277596E0,9.798445542E0
3.675044880E-1,9.756372124E-2,2.244564146E-1,9.819219589E0,9.822269224E0
3.700249050E-1,1.071405262E-1,2.292448133E-1,9.824007988E0,9.827266417E0
3.725453740E-1,1.167173311E-1,2.196680009E-1,9.819219589E0,9.822369893E0
3.750658420E-1,1.071405262E-1,2.340332121E-1,9.819219589E0,9.822592528E0
3.775863110E-1,1.023521200E-1,2.244564146E-1,9.824007988E0,9.827104843E0
3.801065720E-1,1.119289324E-1,2.244564146E-1,9.804854393E0,9.808061910E0
3.826265720E-1,1.262941360E-1,2.148796022E-1,9.828796387E0,9.831956157E0
3.851465200E-1,1.167173311E-1,2.053027898E-1,9.809642792E0,9.812485102E0
3.876662070E-1,1.071405262E-1,2.196680009E-1,9.819219589E0,9.822260761E0
3.901858950E-1,1.023521200E-1,2.100912035E-1,9.804854393E0,9.807639060E0
3.927054780E-1,1.023521200E-1,2.244564146E-1,9.824007988E0,9.827104843E0
3.952250610E-1,9.277531505E-2,2.244564146E-1,9.838373184E0,9.841370578E0
3.977446450E-1,1.119289324E-1,2.388216257E-1,9.833584785E0,9.837121204E0
4.002642280E-1,1.071405262E-1,2.483984232E-1,9.838373184E0,9.842091636E0
4.027838630E-1,1.119289324E-1,2.531868219E-1,9.828796387E0,9.832693937E0
4.053035510E-1,7.841010392E-2,2.579752207E-1,9.795277596E0,9.798987832E0
4.078232900E-1,6.883329898E-2,2.771288455E-1,9.785700798E0,9.789866114E0
4.103431340E-1,8.319851011E-2,2.723404467E-1,9.776124001E0,9.780270537E0
4.128630820E-1,8.798690885E-2,2.867056429E-1,9.780912399E0,9.785509143E0
4.153830820E-1,9.756372124E-2,2.819172442E-1,9.795277596E0,9.799819345E0
4.179031340E-1,1.071405262E-1,2.819172442E-1,9.785700798E0,9.790347110E0
4.204232380E-1,1.071405262E-1,2.914940715E-1,9.790489197E0,9.795413549E0
4.229433420E-1,9.756372124E-2,2.819172442E-1,9.780912399E0,9.785460816E0
4.254634470E-1,9.277531505E-2,3.010708690E-1,9.780912399E0,9.785984789E0
4.279835510E-1,9.756372124E-2,3.010708690E-1,9.780912399E0,9.786031357E0
4.305036550E-1,1.023521200E-1,3.154360652E-1,9.766547203E0,9.772175814E0
4.330237590E-1,9.277531505E-2,3.250128925E-1,9.790489197E0,9.796321726E0
4.355438630E-1,8.319851011E-2,3.250128925E-1,9.785700798E0,9.791450121E0
4.380639670E-1,8.319851011E-2,3.345896900E-1,9.776124001E0,9.782201834E0
4.405840200E-1,8.798690885E-2,3.393780887E-1,9.790489197E0,9.796764665E0
4.431037070E-1,8.319851011E-2,3.345896900E-1,9.790489197E0,9.796558118E0
4.456231340E-1,8.798690885E-2,3.441664875E-1,9.800065994E0,9.806502218E0
4.481425610E-1,8.798690885E-2,3.441664875E-1,9.776124001E0,9.782575977E0
4.506619880E-1,8.319851011E-2,3.585317135E-1,9.766547203E0,9.773479997E0
4.531814670E-1,8.798690885E-2,3.728969097E-1,9.766547203E0,9.774059447E0
4.557009990E-1,1.071405262E-1,3.633201122E-1,9.766547203E0,9.773889956E0
4.582205820E-1,1.071405262E-1,3.585317135E-1,9.785700798E0,9.792852710E0
4.607402170E-1,9.756372124E-2,3.633201122E-1,9.804854393E0,9.812068582E0
4.632599050E-1,9.756372124E-2,3.585317135E-1,9.804854393E0,9.811892444E0
4.657796450E-1,9.756372124E-2,3.585317135E-1,9.795277596E0,9.802322523E0
4.682994360E-1,9.277531505E-2,3.681085110E-1,9.809642792E0,9.816985425E0
4.708192800E-1,9.277531505E-2,3.537433147E-1,9.804854393E0,9.811672195E0
4.733391760E-1,9.277531505E-2,3.489548862E-1,9.795277596E0,9.801930419E0
4.758591240E-1,1.119289324E-1,3.489548862E-1,9.804854393E0,9.811700529E0
4.783790720E-1,1.167173311E-1,3.585317135E-1,9.804854393E0,9.812101589E0
4.808990200E-1,1.071405262E-1,3.585317135E-1,9.804854393E0,9.811992344E0
4.834189670E-1,1.023521200E-1,3.728969097E-1,9.819219589E0,9.826830690E0
4.859389150E-1,9.277531505E-2,3.728969097E-1,9.819219589E0,9.826735608E0
4.884588110E-1,8.798690885E-2,3.681085110E-1,9.833584785E0,9.840865577E0
4.909786550E-1,1.023521200E-1,3.681085110E-1,9.824007988E0,9.831434930E0
4.934984470E-1,1.023521200E-1,3.728969097E-1,9.819219589E0,9.826830690E0
4.960182380E-1,9.277531505E-2,3.681085110E-1,9.785700798E0,9.793061383E0
4.985380300E-1,9.277531505E-2,3.633201122E-1,9.790489197E0,9.797667451E0
5.010578220E-1,8.319851011E-2,3.633201122E-1,9.790489197E0,9.797581447E0
5.035776650E-1,9.277531505E-2,3.633201122E-1,9.785700798E0,9.792882562E0
5.060975090E-1,9.277531505E-2,3.441664875E-1,9.790489197E0,9.796975888E0
5.086174050E-1,9.756372124E-2,3.441664875E-1,9.780912399E0,9.787451998E0
5.111373010E-1,9.756372124E-2,3.345896900E-1,9.776124001E0,9.782334559E0
5.136571970E-1,1.023521200E-1,3.393780887E-1,9.785700798E0,9.792118951E0
5.161770920E-1,1.023521200E-1,3.298012912E-1,9.790489197E0,9.796577135E0
5.186969880E-1,9.756372124E-2,3.393780887E-1,9.771335602E0,9.777714232E0
5.212168840E-1,9.277531505E-2,3.250128925E-1,9.742605209E0,9.748466387E0
5.237367800E-1,7.362170517E-2,3.345896900E-1,9.752182007E0,9.758197800E0
5.262566760E-1,6.404489279E-2,3.202244639E-1,9.785700798E0,9.791148327E0
5.287766240E-1,6.404489279E-2,3.298012912E-1,9.785700798E0,9.791466221E0
5.312966240E-1,6.404489279E-2,3.298012912E-1,9.795277596E0,9.801037385E0
5.338166760E-1,7.362170517E-2,3.250128925E-1,9.790489197E0,9.796159056E0
5.363367800E-1,9.277531505E-2,3.250128925E-1,9.795277596E0,9.801107275E0
5.388569360E-1,7.362170517E-2,3.345896900E-1,9.795277596E0,9.801266938E0
5.413770920E-1,9.277531505E-2,3.393780887E-1,9.776124001E0,9.782452925E0
5.438972490E-1,8.319851011E-2,3.393780887E-1,9.771335602E0,9.777581445E0
5.464174050E-1,8.798690885E-2,3.489548862E-1,9.771335602E0,9.777960455E0
5.489375610E-1,8.319851011E-2,3.537433147E-1,9.780912399E0,9.787660787E0
5.514577170E-1,8.798690885E-2,3.537433147E-1,9.776124001E0,9.782917586E0
5.539778740E-1,9.756372124E-2,3.633201122E-1,9.776124001E0,9.783359375E0
5.564980300E-1,8.798690885E-2,3.489548862E-1,9.785700798E0,9.792315932E0
5.590181860E-1,1.023521200E-1,3.489548862E-1,9.795277596E0,9.802025742E0
5.615383420E-1,1.023521200E-1,3.537433147E-1,9.771335602E0,9.778272329E0
5.640584990E-1,1.023521200E-1,3.728969097E-1,9.776124001E0,9.783768626E0
5.665787070E-1,1.167173311E-1,3.728969097E-1,9.766547203E0,9.774360302E0
5.690989150E-1,1.167173311E-1,3.728969097E-1,9.795277596E0,9.803067796E0
5.716191240E-1,1.262941360E-1,3.776853085E-1,9.800065994E0,9.808154255E0
5.741393320E-1,1.119289324E-1,3.920505345E-1,9.804854393E0,9.813327742E0
5.766595400E-1,1.071405262E-1,3.824737072E-1,9.804854393E0,9.812896356E0
5.791797490E-1,1.071405262E-1,3.968389332E-1,9.804854393E0,9.813466763E0
5.816998010E-1,1.262941360E-1,3.920505345E-1,9.809642792E0,9.818286283E0
5.842197490E-1,1.119289324E-1,3.968389332E-1,9.790489197E0,9.799167717E0
5.867396970E-1,1.215057373E-1,4.016273320E-1,9.776124001E0,9.785124865E0
5.892595920E-1,1.262941360E-1,4.112041295E-1,9.780912399E0,9.790367021E0
5.917794880E-1,1.167173311E-1,4.112041295E-1,9.771335602E0,9.780680509E0
5.942993840E-1,1.167173311E-1,4.207809567E-1,9.756970406E0,9.766736970E0
5.968192800E-1,1.023521200E-1,4.255693555E-1,9.771335602E0,9.781134120E0
5.993391760E-1,1.023521200E-1,4.351461530E-1,9.795277596E0,9.805472518E0
6.018590200E-1,1.071405262E-1,4.207809567E-1,9.771335602E0,9.780978231E0
6.043785510E-1,1.167173311E-1,4.159925580E-1,9.761758804E0,9.771315556E0
6.068980820E-1,1.071405262E-1,4.255693555E-1,9.771335602E0,9.781185399E0
6.094176130E-1,9.277531505E-2,4.399345517E-1,9.780912399E0,9.791240832E0
6.119371450E-1,9.756372124E-2,4.303577542E-1,9.776124001E0,9.786078221E0
6.144566760E-1,1.023521200E-1,4.112041295E-1,9.776124001E0,9.785303535E0
6.169762590E-1,9.756372124E-2,4.207809567E-1,9.785700798E0,9.795229216E0
6.194958950E-1,1.071405262E-1,4.207809567E-1,9.790489197E0,9.800112980E0
6.220155820E-1,9.756372124E-2,4.303577542E-1,9.780912399E0,9.790861752E0
6.245353220E-1,1.023521200E-1,4.159925580E-1,9.780912399E0,9.790289737E0
6.270551130E-1,8.319851011E-2,4.112041295E-1,9.780912399E0,9.789905934E0
6.295749570E-1,7.362170517E-2,3.920505345E-1,9.790489197E0,9.798612274E0
6.320948530E-1,9.756372124E-2,4.064157307E-1,9.780912399E0,9.789838599E0
6.346148010E-1,9.756372124E-2,3.968389332E-1,9.780912399E0,9.789445703E0
6.371348010E-1,8.798690885E-2,3.776853085E-1,9.776124001E0,9.783812568E0
6.396548530E-1,9.277531505E-2,3.824737072E-1,9.766547203E0,9.774473779E0
6.421749570E-1,8.319851011E-2,3.633201122E-1,9.766547203E0,9.773656827E0
6.446951130E-1,7.362170517E-2,3.633201122E-1,9.780912399E0,9.787934870E0
6.472153220E-1,7.841010392E-2,3.633201122E-1,9.785700798E0,9.792757005E0
6.497355820E-1,8.319851011E-2,3.345896900E-1,9.795277596E0,9.801343552E0
6.522558950E-1,7.841010392E-2,3.250128925E-1,9.780912399E0,9.786625000E0
6.547762070E-1,6.883329898E-2,3.250128925E-1,9.790489197E0,9.796124239E0
6.572965200E-1,7.362170517E-2,3.154360652E-1,9.790489197E0,9.795845996E0
6.598168320E-1,6.404489279E-2,3.106476665E-1,9.790489197E0,9.795625678E0
6.623370400E-1,6.883329898E-2,3.010708690E-1,9.795277596E0,9.800145145E0
6.648567800E-1,8.798690885E-2,3.010708690E-1,9.800065994E0,9.805084337E0
6.673763110E-1,6.883329898E-2,2.867056429E-1,9.795277596E0,9.799714349E0
6.698958420E-1,7.841010392E-2,2.723404467E-1,9.804854393E0,9.808949339E0
6.724153740E-1,9.756372124E-2,2.675520480E-1,9.800065994E0,9.804202990E0
6.749349570E-1,7.841010392E-2,2.579752207E-1,9.790489197E0,9.794201247E0
6.774545920E-1,8.798690885E-2,2.483984232E-1,9.800065994E0,9.803608365E0
6.799742800E-1,8.798690885E-2,2.436100245E-1,9.814431190E0,9.817848396E0
6.824940200E-1,7.362170517E-2,2.436100245E-1,9.800065994E0,9.803369803E0
6.850138630E-1,8.798690885E-2,2.340332121E-1,9.804854393E0,9.808041747E0
6.875338110E-1,8.798690885E-2,2.100912035E-1,9.814431190E0,9.817073882E0
6.900538110E-1,1.023521200E-1,1.957259923E-1,9.824007988E0,9.826490603E0
6.925738630E-1,8.798690885E-2,2.005143911E-1,9.828796387E0,9.831235229E0
6.950939670E-1,8.798690885E-2,1.957259923E-1,9.838373184E0,9.840713250E0
6.976140720E-1,1.071405262E-1,2.005143911E-1,9.838373184E0,9.840999544E0
7.001341760E-1,1.119289324E-1,2.005143911E-1,9.838373184E0,9.841052841E0
7.026542800E-1,9.756372124E-2,2.005143911E-1,9.852738380E0,9.855261452E0
7.051743840E-1,7.841010392E-2,2.053027898E-1,9.833584785E0,9.836040215E0
7.076939670E-1,7.362170517E-2,1.813607812E-1,9.819219589E0,9.821170258E0
7.102135510E-1,9.756372124E-2,1.861491799E-1,9.814431190E0,9.816681200E0
7.127331340E-1,1.071405262E-1,1.813607812E-1,9.824007988E0,9.826266014E0
7.152527170E-1,1.023521200E-1,1.813607812E-1,9.838373184E0,9.840576945E0
7.177723530E-1,9.756372124E-2,1.717839688E-1,9.838373184E0,9.840356463E0
7.202920400E-1,9.756372124E-2,1.861491799E-1,9.819219589E0,9.821468502E0
7.228117800E-1,1.023521200E-1,1.957259923E-1,9.824007988E0,9.826490603E0
7.253317800E-1,1.119289324E-1,1.957259923E-1,9.809642792E0,9.812233612E0
7.278517800E-1,1.119289324E-1,2.005143911E-1,9.800065994E0,9.802756123E0
7.303717800E-1,9.756372124E-2,2.005143911E-1,9.814431190E0,9.816964108E0
7.328917800E-1,8.798690885E-2,2.100912035E-1,9.819219589E0,9.821860992E0
7.354117800E-1,8.319851011E-2,2.005143911E-1,9.824007988E0,9.826406310E0
7.379317800E-1,1.119289324E-1,2.100912035E-1,9.824007988E0,9.826891642E0
7.404512070E-1,1.071405262E-1,2.100912035E-1,9.843161583E0,9.845986358E0
7.429706340E-1,8.798690885E-2,2.292448133E-1,9.814431190E0,9.817502456E0
7.454900610E-1,1.023521200E-1,2.292448133E-1,9.795277596E0,9.798494390E0
7.480094880E-1,1.119289324E-1,2.483984232E-1,9.800065994E0,9.803852475E0
7.505289670E-1,1.023521200E-1,2.627636492E-1,9.795277596E0,9.799335889E0
7.530484990E-1,1.071405262E-1,2.627636492E-1,9.785700798E0,9.789814295E0
7.555681340E-1,9.756372124E-2,2.675520480E-1,9.800065994E0,9.804202990E0
7.580878740E-1,8.798690885E-2,2.819172442E-1,9.804854393E0,9.809301132E0
7.606077170E-1,1.023521200E-1,2.819172442E-1,9.780912399E0,9.785509729E0
7.631276650E-1,9.756372124E-2,2.962824702E-1,9.780912399E0,9.785885210E0
7.656477170E-1,8.319851011E-2,3.106476665E-1,9.771335602E0,9.776626382E0
7.681678740E-1,7.841010392E-2,3.010708690E-1,9.785700798E0,9.790645123E0
7.706880820E-1,7.841010392E-2,3.106476665E-1,9.780912399E0,9.786158464E0
7.732083420E-1,7.362170517E-2,3.154360652E-1,9.766547203E0,9.771917127E0
7.757286550E-1,8.798690885E-2,3.154360652E-1,9.766547203E0,9.772035913E0
7.782490200E-1,8.798690885E-2,3.202244639E-1,9.780912399E0,9.786548562E0
7.807693840E-1,7.841010392E-2,3.345896900E-1,9.766547203E0,9.772591400E0
7.832897490E-1,7.841010392E-2,3.345896900E-1,9.785700798E0,9.791733172E0
7.858101130E-1,7.362170517E-2,3.441664875E-1,9.780912399E0,9.787242619E0
7.883302170E-1,7.841010392E-2,3.489548862E-1,9.785700798E0,9.792234564E0
7.908502170E-1,7.362170517E-2,3.537433147E-1,9.790489197E0,9.797154342E0
7.933700090E-1,8.798690885E-2,3.585317135E-1,9.766547203E0,9.773521932E0
7.958896450E-1,9.277531505E-2,3.585317135E-1,9.776124001E0,9.783136139E0
7.984091760E-1,8.319851011E-2,3.441664875E-1,9.771335602E0,9.777748821E0
8.009287070E-1,7.362170517E-2,3.728969097E-1,9.776124001E0,9.783510246E0
8.034482380E-1,9.277531505E-2,3.920505345E-1,9.795277596E0,9.803559254E0
8.059677700E-1,8.798690885E-2,3.776853085E-1,9.780912399E0,9.788597205E0
8.084873010E-1,8.319851011E-2,3.728969097E-1,9.804854393E0,9.812295540E0
8.110068320E-1,6.883329898E-2,3.776853085E-1,9.790489197E0,9.798013213E0
8.135264150E-1,7.362170517E-2,3.633201122E-1,9.785700798E0,9.792719835E0
8.160460510E-1,7.362170517E-2,3.633201122E-1,9.795277596E0,9.802289775E0
8.185657380E-1,8.798690885E-2,3.776853085E-1,9.785700798E0,9.793381847E0
8.210854780E-1,9.756372124E-2,3.681085110E-1,9.785700798E0,9.793107916E0
8.236052700E-1,7.841010392E-2,3.537433147E-1,9.804854393E0,9.811546878E0
8.261251130E-1,7.841010392E-2,3.585317135E-1,9.804854393E0,9.811720685E0
8.286450090E-1,9.277531505E-2,3.585317135E-1,9.785700798E0,9.792706079E0
8.311649570E-1,9.756372124E-2,3.633201122E-1,9.790489197E0,9.797713963E0
8.336849570E-1,1.071405262E-1,3.537433147E-1,9.790489197E0,9.797463556E0
8.362050090E-1,1.023521200E-1,3.633201122E-1,9.780912399E0,9.788193134E0
8.387250610E-1,9.756372124E-2,3.537433147E-1,9.761758804E0,9.768653334E0
8.412451130E-1,9.756372124E-2,3.489548862E-1,9.771335602E0,9.778051321E0
8.437651650E-1,1.023521200E-1,3.489548862E-1,9.752182007E0,9.758959953E0
8.462852170E-1,1.023521200E-1,3.537433147E-1,9.752182007E0,9.759132348E0
8.488052700E-1,9.277531505E-2,3.441664875E-1,9.761758804E0,9.768264574E0
8.513253220E-1,9.756372124E-2,3.250128925E-1,9.756970406E0,9.762869637E0
8.538453740E-1,9.277531505E-2,3.298012912E-1,9.742605209E0,9.748627207E0
8.563654260E-1,9.756372124E-2,3.345896900E-1,9.752182007E0,9.758407802E0
8.588854780E-1,1.119289324E-1,3.489548862E-1,9.776124001E0,9.782990242E0
8.614055820E-1,1.167173311E-1,3.298012912E-1,9.771335602E0,9.777596395E0
8.639257380E-1,9.756372124E-2,3.154360652E-1,9.771335602E0,9.776912500E0
8.664459470E-1,9.756372124E-2,3.298012912E-1,9.780912399E0,9.786957389E0
8.689662070E-1,1.023521200E-1,3.345896900E-1,9.776124001E0,9.782383487E0
8.714865200E-1,1.071405262E-1,3.298012912E-1,9.780912399E0,9.787057543E0
8.740068840E-1,1.023521200E-1,3.298012912E-1,9.780912399E0,9.787006295E0
8.765272490E-1,9.756372124E-2,3.298012912E-1,9.776124001E0,9.782171949E0
8.790476130E-1,1.071405262E-1,3.393780887E-1,9.790489197E0,9.796955409E0
8.815676130E-1,8.798690885E-2,3.345896900E-1,9.790489197E0,9.796599955E0
8.840876130E-1,8.319851011E-2,3.298012912E-1,9.795277596E0,9.801181258E0
8.866075090E-1,8.798690885E-2,3.441664875E-1,9.785700798E0,9.792146464E0
8.891272490E-1,8.319851011E-2,3.537433147E-1,9.776124001E0,9.782875692E0
8.916468840E-1,7.841010392E-2,3.489548862E-1,9.785700798E0,9.792234564E0
8.941664150E-1,6.404489279E-2,3.489548862E-1,9.795277596E0,9.801700589E0
8.966859470E-1,7.841010392E-2,3.681085110E-1,9.776124001E0,9.783366113E0
8.992054780E-1,8.319851011E-2,3.681085110E-1,9.785700798E0,9.792975338E0
9.017250090E-1,8.798690885E-2,3.633201122E-1,9.800065994E0,9.807193110E0
9.042445400E-1,7.841010392E-2,3.489548862E-1,9.809642792E0,9.816160622E0
9.067640720E-1,7.841010392E-2,3.633201122E-1,9.804854393E0,9.811896826E0
9.092836030E-1,6.883329898E-2,3.728969097E-1,9.795277596E0,9.802614616E0
9.118031340E-1,7.362170517E-2,3.681085110E-1,9.790489197E0,9.797683540E0
9.143227170E-1,6.404489279E-2,3.776853085E-1,9.776124001E0,9.783626547E0
9.168423010E-1,6.883329898E-2,3.872621357E-1,9.800065994E0,9.807956131E0
9.193618840E-1,7.362170517E-2,3.681085110E-1,9.790489197E0,9.797683540E0
9.218814670E-1,9.277531505E-2,3.728969097E-1,9.785700798E0,9.793242541E0
9.244011030E-1,6.883329898E-2,3.824737072E-1,9.771335602E0,9.779060466E0
9.269207900E-1,8.319851011E-2,4.112041295E-1,9.776124001E0,9.785121936E0
9.294405820E-1,7.841010392E-2,4.064157307E-1,9.737816811E0,9.746609571E0
9.319604780E-1,8.798690885E-2,3.920505345E-1,9.737816811E0,9.746102891E0
9.344804780E-1,8.319851011E-2,4.112041295E-1,9.752182007E0,9.761202012E0
9.370005820E-1,7.841010392E-2,4.064157307E-1,9.756970406E0,9.765745921E0
9.395207380E-1,8.798690885E-2,4.159925580E-1,9.756970406E0,9.766230747E0
9.420409470E-1,1.023521200E-1,4.112041295E-1,9.766547203E0,9.775735730E0
9.445612070E-1,8.319851011E-2,3.968389332E-1,9.771335602E0,9.779744505E0
9.470815200E-1,9.756372124E-2,4.112041295E-1,9.766547203E0,9.775686768E0
9.496018320E-1,8.798690885E-2,4.112041295E-1,9.761758804E0,9.770811915E0
9.521221450E-1,1.023521200E-1,4.064157307E-1,9.756970406E0,9.765967499E0
9.546421970E-1,1.119289324E-1,4.159925580E-1,9.771335602E0,9.780827027E0
9.571620920E-1,9.756372124E-2,4.255693555E-1,9.780912399E0,9.790652446E0
9.596819880E-1,1.023521200E-1,4.303577542E-1,9.761758804E0,9.771776640E0
9.622018840E-1,1.119289324E-1,4.255693555E-1,9.776124001E0,9.786022575E0
9.647217800E-1,1.023521200E-1,4.207809567E-1,9.780912399E0,9.790494366E0
9.672416760E-1,1.023521200E-1,4.159925580E-1,9.790489197E0,9.799857370E0
9.697615720E-1,1.215057373E-1,4.207809567E-1,9.809642792E0,9.819415052E0
9.722814670E-1,1.167173311E-1,3.968389332E-1,9.814431190E0,9.823144286E0
9.748013630E-1,9.756372124E-2,4.064157307E-1,9.843161583E0,9.852031383E0
9.773212590E-1,1.071405262E-1,4.016273320E-1,9.824007988E0,9.832798002E0
9.798411550E-1,1.071405262E-1,3.872621357E-1,9.785700798E0,9.793946659E0
9.823610510E-1,9.756372124E-2,3.728969097E-1,9.819219589E0,9.826781982E0
9.848809470E-1,9.756372124E-2,3.633201122E-1,9.852738380E0,9.859917534E0
9.874008420E-1,9.277531505E-2,3.728969097E-1,9.833584785E0,9.841089833E0
9.899207380E-1,8.798690885E-2,3.633201122E-1,9.824007988E0,9.831117747E0
9.924406340E-1,1.023521200E-1,3.681085110E-1,9.838373184E0,9.845789290E0
9.949605300E-1,9.277531505E-2,3.537433147E-1,9.838373184E0,9.845167774E0
9.974804260E-1,9.277531505E-2,3.441664875E-1,9.814431190E0,9.820902068E0
1.000000374E0,9.277531505E-2,3.393780887E-1,9.814431190E0,9.820735428E0
1.002520374E0,8.798690885E-2,3.345896900E-1,9.790489197E0,9.796599955E0
1.005040426E0,1.119289324E-1,3.393780887E-1,9.790489197E0,9.797008946E0
1.007560530E0,7.841010392E-2,3.441664875E-1,9.828796387E0,9.835132797E0
1.010080686E0,9.756372124E-2,3.345896900E-1,9.804854393E0,9.811046764E0
1.012600895E0,8.798690885E-2,3.250128925E-1,9.809642792E0,9.815419847E0
1.015121155E0,8.319851011E-2,3.010708690E-1,9.804854393E0,9.809828507E0
1.017641415E0,8.798690885E-2,2.867056429E-1,9.785700798E0,9.790295293E0
1.020161676E0,8.319851011E-2,2.723404467E-1,9.756970406E0,9.761125079E0
1.022681936E0,1.071405262E-1,2.627636492E-1,9.752182007E0,9.756309636E0
1.025202197E0,1.119289324E-1,2.436100245E-1,9.742605209E0,9.746293152E0
1.027722457E0,9.277531505E-2,2.436100245E-1,9.747393608E0,9.750878691E0
1.030242717E0,9.756372124E-2,2.292448133E-1,9.733028412E0,9.736216613E0
1.032762978E0,1.023521200E-1,2.340332121E-1,9.723451614E0,9.726806197E0
1.035283186E0,9.756372124E-2,2.053027898E-1,9.742605209E0,9.745256496E0
1.037802874E0,1.023521200E-1,2.148796022E-1,9.718663216E0,9.721577233E0
1.040322561E0,1.071405262E-1,2.148796022E-1,9.713874817E0,9.716841889E0
1.042842249E0,1.071405262E-1,2.148796022E-1,9.728240013E0,9.731202705E0
1.045361936E0,9.756372124E-2,2.005143911E-1,9.742605209E0,9.745156795E0
1.047881624E0,9.756372124E-2,2.100912035E-1,9.761758804E0,9.764506744E0
1.050401311E0,9.277531505E-2,2.196680009E-1,9.766547203E0,9.769457792E0
1.052920999E0,7.841010392E-2,2.148796022E-1,9.766547203E0,9.769225438E0
1.055440686E0,7.362170517E-2,2.100912035E-1,9.814431190E0,9.816955641E0
1.057960374E0,9.277531505E-2,2.196680009E-1,9.862315178E0,9.865197512E0
1.060480061E0,8.798690885E-2,2.244564146E-1,9.824007988E0,9.826965723E0
1.062999749E0,8.319851011E-2,2.148796022E-1,9.824007988E0,9.826709937E0
1.065519436E0,1.071405262E-1,1.957259923E-1,9.847949982E0,9.850477481E0
1.068039124E0,1.023521200E-1,2.005143911E-1,9.838373184E0,9.840948577E0
1.070558863E0,8.319851011E-2,2.196680009E-1,9.852738380E0,9.855538018E0
1.073078655E0,9.756372124E-2,2.244564146E-1,9.867103577E0,9.870138416E0
1.075598499E0,9.756372124E-2,2.196680009E-1,9.833584785E0,9.836521867E0
1.078118395E0,1.119289324E-1,2.292448133E-1,9.795277596E0,9.798599106E0
1.080638342E0,1.119289324E-1,2.148796022E-1,9.814431190E0,9.817421297E0
1.083158342E0,9.756372124E-2,2.196680009E-1,9.814431190E0,9.817374002E0
1.085678395E0,1.023521200E-1,2.436100245E-1,9.828796387E0,9.832347645E0
1.088198499E0,1.119289324E-1,2.388216257E-1,9.843161583E0,9.846694562E0
1.090718655E0,9.756372124E-2,2.483984232E-1,9.819219589E0,9.822845504E0
1.093238863E0,8.798690885E-2,2.723404467E-1,9.804854393E0,9.809030568E0
1.095759072E0,8.798690885E-2,2.867056429E-1,9.780912399E0,9.785509143E0
1.098279280E0,9.277531505E-2,2.819172442E-1,9.742605209E0,9.747124748E0
1.100799488E0,8.798690885E-2,3.058592677E-1,9.819219589E0,9.824376058E0
1.103319697E0,8.798690885E-2,3.106476665E-1,9.857526779E0,9.862812878E0
1.105839853E0,7.841010392E-2,3.058592677E-1,9.756970406E0,9.762078136E0
1.108359749E0,1.071405262E-1,3.154360652E-1,9.723451614E0,9.729156711E0
1.110879645E0,1.119289324E-1,3.345896900E-1,9.795277596E0,9.801629534E0
1.113399540E0,7.841010392E-2,3.393780887E-1,9.819219589E0,9.825395614E0
1.115919436E0,7.362170517E-2,3.585317135E-1,9.747393608E0,9.754263032E0
1.118439332E0,9.756372124E-2,3.393780887E-1,9.733028412E0,9.739432131E0
1.120959124E0,8.319851011E-2,3.345896900E-1,9.766547203E0,9.772630993E0
1.123478447E0,8.798690885E-2,3.537433147E-1,9.804854393E0,9.811628086E0
1.125997770E0,8.319851011E-2,3.489548862E-1,9.737816811E0,9.744422391E0
1.128517092E0,8.798690885E-2,3.585317135E-1,9.742605209E0,9.749597066E0
1.131036415E0,8.798690885E-2,3.441664875E-1,9.824007988E0,9.830428537E0
1.133555790E0,6.883329898E-2,3.298012912E-1,9.771335602E0,9.777142034E0
1.136075217E0,9.277531505E-2,3.537433147E-1,9.780912399E0,9.787746878E0
1.138594697E0,8.319851011E-2,3.345896900E-1,9.824007988E0,9.830056216E0
1.141114228E0,5.446808785E-2,3.298012912E-1,9.752182007E0,9.757909077E0
1.143633811E0,5.446808785E-2,3.681085110E-1,9.847949982E0,9.854977904E0
1.146153499E0,5.925649032E-2,3.202244639E-1,9.900622368E0,9.905976898E0
1.148673290E0,6.404489279E-2,3.489548862E-1,9.804854393E0,9.811271117E0
1.151193186E0,1.023521200E-1,3.489548862E-1,9.895833969E0,9.902513591E0
1.153713134E0,9.756372124E-2,3.441664875E-1,9.972448349E0,9.978862426E0
1.156233134E0,7.362170517E-2,3.393780887E-1,9.953294754E0,9.959351088E0
1.158753186E0,8.319851011E-2,3.872621357E-1,9.838373184E0,9.846343528E0
1.161273290E0,1.119289324E-1,3.824737072E-1,9.795277596E0,9.803380917E0
1.163793447E0,1.023521200E-1,3.728969097E-1,9.847949982E0,9.855538895E0
1.166313655E0,1.071405262E-1,3.776853085E-1,9.838373184E0,9.846202933E0
1.168833915E0,1.358709484E-1,3.441664875E-1,9.819219589E0,9.826188723E0
1.171354228E0,1.358709484E-1,3.058592677E-1,9.819219589E0,9.824921585E0
1.173874592E0,1.167173311E-1,2.675520480E-1,9.804854393E0,9.809198576E0
1.176394957E0,1.071405262E-1,2.100912035E-1,9.776124001E0,9.778968140E0
1.178915322E0,1.071405262E-1,2.053027898E-1,9.809642792E0,9.812375861E0
1.181435270E0,7.362170517E-2,1.909375787E-1,9.843161583E0,9.845288582E0
1.183954957E0,5.925649032E-2,2.244564146E-1,9.771335602E0,9.774092871E0
1.186474645E0,7.362170517E-2,2.196680009E-1,9.905410767E0,9.908119733E0
1.188994332E0,8.798690885E-2,2.053027898E-1,9.891045570E0,9.893567274E0
1.191514020E0,6.404489279E-2,2.244564146E-1,9.771335602E0,9.774123074E0
1.194033759E0,6.883329898E-2,2.436100245E-1,9.804854393E0,9.808121815E0
1.196553551E0,9.756372124E-2,2.723404467E-1,9.790489197E0,9.794762208E0
1.199073395E0,1.262941360E-1,2.579752207E-1,9.800065994E0,9.804274319E0
1.201593238E0,1.119289324E-1,2.436100245E-1,9.670779228E0,9.674494551E0
1.204113082E0,1.310825497E-1,2.627636492E-1,9.598953247E0,9.603443695E0
1.206632926E0,1.693897694E-1,2.531868219E-1,9.651625633E0,9.656431734E0
1.209152770E0,1.550245583E-1,2.531868219E-1,9.699509621E0,9.704051889E0
1.211672613E0,1.598129570E-1,2.005143911E-1,9.733028412E0,9.736405305E0
1.214192509E0,1.406593472E-1,1.813607812E-1,9.661202431E0,9.663928249E0
1.216712457E0,1.454477459E-1,1.717839688E-1,9.637260437E0,9.639888667E0
1.219232457E0,1.358709484E-1,1.622071713E-1,9.675567627E0,9.677881017E0
1.221752509E0,9.756372124E-2,1.813607812E-1,9.742605209E0,9.744781510E0
1.224272665E0,8.319851011E-2,1.957259923E-1,9.838373184E0,9.840671601E0
1.226792926E0,9.277531505E-2,2.053027898E-1,9.876680374E0,9.879249552E0
1.229313290E0,9.756372124E-2,2.436100245E-1,9.881468773E0,9.884952687E0
1.231833707E0,8.319851011E-2,2.914940715E-1,9.914987564E0,9.919620415E0
1.234354176E0,6.404489279E-2,3.250128925E-1,9.852738380E0,9.858305571E0
1.236874697E0,7.362170517E-2,3.585317135E-1,9.814431190E0,9.821253725E0
1.239395217E0,8.319851011E-2,3.441664875E-1,9.953294754E0,9.959590806E0
1.241915738E0,7.841010392E-2,3.441664875E-1,9.857526779E0,9.863844733E0
1.244436259E0,8.798690885E-2,3.298012912E-1,9.852738380E0,9.858649207E0
1.246956676E0,9.756372124E-2,2.962824702E-1,9.847949982E0,9.852888958E0
1.249476728E0,1.023521200E-1,2.914940715E-1,9.728240013E0,9.733144328E0
1.251996676E0,1.358709484E-1,2.771288455E-1,9.780912399E0,9.785780944E0
1.254516624E0,1.454477459E-1,2.388216257E-1,9.814431190E0,9.818413844E0
1.257036259E0,1.023521200E-1,2.675520480E-1,9.756970406E0,9.761174701E0
1.259555790E0,8.798690885E-2,2.483984232E-1,9.867103577E0,9.870621888E0
1.262075322E0,6.883329898E-2,2.914940715E-1,9.728240013E0,9.732849561E0
1.264594853E0,7.841010392E-2,2.914940715E-1,9.646837234E0,9.651558712E0
1.267114384E0,6.883329898E-2,3.633201122E-1,9.771335602E0,9.778330071E0
1.269633915E0,6.404489279E-2,4.207809567E-1,9.819219589E0,9.828439943E0
1.272153447E0,5.446808785E-2,4.351461530E-1,9.795277596E0,9.805089603E0
1.274672978E0,6.883329898E-2,4.973953962E-1,9.723451614E0,9.736408552E0
1.277192561E0,5.925649032E-2,5.021837950E-1,9.800065994E0,9.813103148E0
1.279712197E0,2.094926499E-2,5.165489912E-1,9.914987564E0,9.928456080E0
1.282231884E0,-7.781155407E-3,5.261258483E-1,9.847949982E0,9.861997151E0
1.284751676E0,1.616086066E-2,5.165489912E-1,9.800065994E0,9.813683178E0
1.287271572E0,2.573766746E-2,5.117605925E-1,9.824007988E0,9.837362161E0
1.289791572E0,1.795651275E-3,4.590881765E-1,9.804854393E0,9.815596510E0
1.292311676E0,-2.992752008E-3,4.686649740E-1,9.737816811E0,9.749088781E0
1.294831832E0,4.010287672E-2,4.303577542E-1,9.761758804E0,9.771322888E0
1.297352040E0,5.925649032E-2,4.016273320E-1,9.752182007E0,9.760628553E0
1.299872301E0,6.883329898E-2,4.064157307E-1,9.752182007E0,9.760889594E0
1.302392561E0,6.883329898E-2,4.016273320E-1,9.685144424E0,9.693712656E0
1.304912822E0,7.841010392E-2,4.112041295E-1,9.637260437E0,9.646347791E0
1.307432822E0,8.798690885E-2,4.207809567E-1,9.709086418E0,9.718598530E0
1.309952613E0,8.319851011E-2,4.399345517E-1,9.670779228E0,9.681138119E0
1.312472145E0,1.119289324E-1,4.686649740E-1,9.651625633E0,9.663645912E0
1.314991676E0,1.406593472E-1,4.686649740E-1,9.656414032E0,9.668803642E0
1.317511207E0,1.358709484E-1,4.782418013E-1,9.694721222E0,9.707460827E0
1.320030738E0,1.358709484E-1,4.686649740E-1,9.728240013E0,9.740470293E0
1.322550270E0,1.454477459E-1,4.495113790E-1,9.780912399E0,9.792316523E0
1.325069801E0,1.550245583E-1,4.207809567E-1,9.752182007E0,9.762486524E0
1.327589384E0,1.502361596E-1,4.255693555E-1,9.737816811E0,9.748269406E0
1.330109020E0,1.598129570E-1,3.920505345E-1,9.761758804E0,9.770935408E0
1.332628707E0,1.598129570E-1,3.633201122E-1,9.771335602E0,9.779393699E0
1.335148447E0,1.837549806E-1,3.441664875E-1,9.809642792E0,9.817398238E0
1.337668238E0,1.502361596E-1,3.250128925E-1,9.804854393E0,9.811390011E0
1.340188134E0,1.550245583E-1,3.250128925E-1,9.737816811E0,9.744472394E0
1.342708134E0,1.646013707E-1,3.154360652E-1,9.776124001E0,9.782596485E0
1.345228238E0,1.646013707E-1,2.914940715E-1,9.756970406E0,9.762711401E0
1.347748447E0,1.454477459E-1,3.298012912E-1,9.752182007E0,9.758841009E0
1.350268707E0,1.454477459E-1,3.345896900E-1,9.795277596E0,9.802069602E0
1.352789020E0,1.358709484E-1,3.681085110E-1,9.723451614E0,9.731365582E0
1.355309384E0,1.358709484E-1,3.633201122E-1,9.733028412E0,9.740754821E0
1.357829801E0,1.358709484E-1,3.824737072E-1,9.790489197E0,9.798899212E0
1.360350270E0,1.167173311E-1,3.776853085E-1,9.814431190E0,9.822389155E0
1.362870738E0,1.167173311E-1,3.728969097E-1,9.795277596E0,9.803067796E0
1.365391207E0,1.215057373E-1,3.824737072E-1,9.819219589E0,9.827416910E0
1.367911624E0,1.023521200E-1,3.728969097E-1,9.867103577E0,9.874677770E0
1.370431572E0,7.841010392E-2,3.202244639E-1,9.733028412E0,9.738610472E0
1.372951520E0,9.277531505E-2,3.489548862E-1,9.785700798E0,9.792360128E0
1.375471467E0,7.841010392E-2,2.675520480E-1,9.895833969E0,9.899760714E0
1.377991415E0,3.531447425E-2,2.867056429E-1,9.780912399E0,9.785177290E0
1.380511363E0,6.883329898E-2,2.914940715E-1,9.771335602E0,9.775924829E0
1.383031311E0,7.362170517E-2,2.914940715E-1,9.814431190E0,9.819035011E0
1.385551259E0,4.967968538E-2,2.914940715E-1,9.800065994E0,9.804526014E0
1.388071207E0,5.925649032E-2,3.202244639E-1,9.747393608E0,9.752832265E0
1.390591155E0,1.071405262E-1,3.154360652E-1,9.718663216E0,9.724371121E0
1.393111103E0,1.119289324E-1,3.106476665E-1,9.814431190E0,9.819984198E0
1.395630999E0,5.925649032E-2,3.202244639E-1,9.804854393E0,9.810261195E0
1.398150738E0,4.010287672E-2,3.250128925E-1,9.747393608E0,9.752893098E0
1.400670478E0,4.967968538E-2,3.106476665E-1,9.809642792E0,9.814686024E0
1.403190217E0,4.489128292E-2,3.202244639E-1,9.886257172E0,9.891543853E0
1.405709957E0,1.616086066E-2,3.250128925E-1,9.828796387E0,9.834181866E0
1.408229697E0,3.531447425E-2,3.537433147E-1,9.800065994E0,9.806511864E0
1.410749436E0,6.883329898E-2,3.537433147E-1,9.819219589E0,9.825830535E0
1.413269176E0,4.967968538E-2,3.728969097E-1,9.800065994E0,9.807283705E0
1.415788915E0,3.052607179E-2,3.681085110E-1,9.776124001E0,9.783099519E0
1.418308655E0,5.446808785E-2,3.585317135E-1,9.756970406E0,9.763707455E0
1.420828395E0,5.446808785E-2,3.681085110E-1,9.828796387E0,9.835837995E0
1.423348134E0,2.094926499E-2,3.489548862E-1,9.809642792E0,9.815869808E0
1.425867874E0,1.795651275E-3,3.298012912E-1,9.766547203E0,9.772114223E0
1.428387613E0,1.616086066E-2,3.393780887E-1,9.804854393E0,9.810739438E0
1.430907353E0,-2.992752008E-3,3.058592677E-1,9.728240013E0,9.733047447E0
1.433427092E0,-1.256955881E-2,3.681085110E-1,9.723451614E0,9.730425128E0
1.435946832E0,2.573766746E-2,3.633201122E-1,9.785700798E0,9.792476910E0
1.438466572E0,1.137245819E-2,4.303577542E-1,9.800065994E0,9.809517349E0
1.440986311E0,2.573766746E-2,4.447229803E-1,9.756970406E0,9.767134301E0
1.443506051E0,4.010287672E-2,4.638765752E-1,9.618106842E0,9.629370122E0
1.446025790E0,5.446808785E-2,4.590881765E-1,9.670779228E0,9.681823155E0
1.448545530E0,2.094926499E-2,4.638765752E-1,9.709086418E0,9.720184125E0
1.451065270E0,1.137245819E-2,4.638765752E-1,9.670779228E0,9.681904859E0
1.453585061E0,2.094926499E-2,4.495113790E-1,9.689932823E0,9.700376151E0
1.456104905E0,3.052607179E-2,4.159925580E-1,9.761758804E0,9.770666129E0
1.458624801E0,1.616086066E-2,4.016273320E-1,9.771335602E0,9.779599436E0
1.461144749E0,1.137245819E-2,3.728969097E-1,9.766547203E0,9.773670022E0
1.463664749E0,2.094926499E-2,3.345896900E-1,9.733028412E0,9.738800296E0
1.466184801E0,4.010287672E-2,3.393780887E-1,9.780912399E0,9.786880662E0
1.468704905E0,3.531447425E-2,3.728969097E-1,9.891045570E0,9.898135263E0
1.471225009E0,5.446808785E-2,3.824737072E-1,9.871891975E0,9.879448572E0
1.473745113E0,8.798690885E-2,3.681085110E-1,9.651625633E0,9.659043583E0
1.476265217E0,1.215057373E-1,3.968389332E-1,9.670779228E0,9.679680556E0
1.478785270E0,1.262941360E-1,3.968389332E-1,9.876680374E0,9.885456315E0
1.481305217E0,1.167173311E-1,4.016273320E-1,9.886257172E0,9.895100217E0
1.483825061E0,1.262941360E-1,4.399345517E-1,9.862315178E0,9.872930329E0
1.486344905E0,1.550245583E-1,3.968389332E-1,9.847949982E0,9.857161488E0
1.488864749E0,1.358709484E-1,3.824737072E-1,9.828796387E0,9.837173652E0
1.491384592E0,1.502361596E-1,3.489548862E-1,9.838373184E0,9.845706035E0
1.493904436E0,1.550245583E-1,3.250128925E-1,9.819219589E0,9.825820034E0
1.496424280E0,1.646013707E-1,2.771288455E-1,9.828796387E0,9.834080151E0
1.498944124E0,1.789665818E-1,2.771288455E-1,9.910199165E0,9.915688424E0
1.501463967E0,1.837549806E-1,2.483984232E-1,9.871891975E0,9.876726120E0
1.503983863E0,1.789665818E-1,2.388216257E-1,9.747393608E0,9.751961185E0
1.506503759E0,1.981201917E-1,2.292448133E-1,9.737816811E0,9.742529499E0
1.509023655E0,2.124854028E-1,2.531868219E-1,9.771335602E0,9.776924519E0
1.511543603E0,1.741781682E-1,2.531868219E-1,9.761758804E0,9.766594931E0
1.514063603E0,1.646013707E-1,2.627636492E-1,9.733028412E0,9.737965928E0
1.516583655E0,1.598129570E-1,2.627636492E-1,9.699509621E0,9.704384153E0
1.519103707E0,1.262941360E-1,2.723404467E-1,9.694721222E0,9.699367974E0
1.521623811E0,1.358709484E-1,2.819172442E-1,9.723451614E0,9.728486498E0
1.524143967E0,1.310825497E-1,2.867056429E-1,9.752182007E0,9.757276088E0
1.526664176E0,1.310825497E-1,2.771288455E-1,9.809642792E0,9.814431962E0
1.529184436E0,1.262941360E-1,3.106476665E-1,9.905410767E0,9.911085442E0
1.531704749E0,7.841010392E-2,2.675520480E-1,9.780912399E0,9.784885263E0
1.534225061E0,9.756372124E-2,2.723404467E-1,9.618106842E0,9.622456403E0
1.536745374E0,1.119289324E-1,2.579752207E-1,9.747393608E0,9.751449198E0
1.539265686E0,5.446808785E-2,2.483984232E-1,9.857526779E0,9.860806395E0
1.541785895E0,4.010287672E-2,2.388216257E-1,9.747393608E0,9.750401333E0
1.544305895E0,7.841010392E-2,2.340332121E-1,9.756970406E0,9.760091761E0
1.546825895E0,8.798690885E-2,1.813607812E-1,9.819219589E0,9.821288448E0
1.549345842E0,5.446808785E-2,2.005143911E-1,9.766547203E0,9.768757191E0
1.551865790E0,5.446808785E-2,2.100912035E-1,9.723451614E0,9.725873554E0
1.554385738E0,7.362170517E-2,1.957259923E-1,9.728240013E0,9.730487273E0
1.556905686E0,5.446808785E-2,2.100912035E-1,9.752182007E0,9.754596813E0
1.559425634E0,4.489128292E-2,2.340332121E-1,9.766547203E0,9.769453979E0
1.561945582E0,4.010287672E-2,2.244564146E-1,9.776124001E0,9.778782613E0
1.564465582E0,3.052607179E-2,2.292448133E-1,9.800065994E0,9.802794424E0
1.566985634E0,2.573766746E-2,2.531868219E-1,9.843161583E0,9.846450931E0
1.569505738E0,4.010287672E-2,2.723404467E-1,9.862315178E0,9.866156203E0
1.572025895E0,3.531447425E-2,2.819172442E-1,9.895833969E0,9.899911837E0
1.574546103E0,2.573766746E-2,2.962824702E-1,9.867103577E0,9.871584408E0
1.577066363E0,1.616086066E-2,3.202244639E-1,9.833584785E0,9.838810630E0
1.579586676E0,4.010287672E-2,3.345896900E-1,9.852738380E0,9.858499485E0
1.582106988E0,3.531447425E-2,3.537433147E-1,9.876680374E0,9.883076275E0
1.584627301E0,4.489128292E-2,3.489548862E-1,9.867103577E0,9.873374182E0
1.587147613E0,4.967968538E-2,3.633201122E-1,9.838373184E0,9.845204746E0
1.589667926E0,7.841010392E-2,3.633201122E-1,9.847949982E0,9.854961618E0
1.592188238E0,8.319851011E-2,3.585317135E-1,9.824007988E0,9.830900260E0
1.594708551E0,9.277531505E-2,3.537433147E-1,9.785700798E0,9.792531935E0
1.597228863E0,1.167173311E-1,3.537433147E-1,9.766547203E0,9.773648323E0
1.599749124E0,1.167173311E-1,3.537433147E-1,9.742605209E0,9.749723767E0
1.602269384E0,1.167173311E-1,3.728969097E-1,9.742605209E0,9.750437493E0
1.604789645E0,1.262941360E-1,3.920505345E-1,9.747393608E0,9.756092250E0
1.607309905E0,1.358709484E-1,3.824737072E-1,9.790489197E0,9.798899212E0
1.609830165E0,1.262941360E-1,3.872621357E-1,9.819219589E0,9.827664805E0
1.612350426E0,1.310825497E-1,4.016273320E-1,9.838373184E0,9.847439975E0
1.614870686E0,1.215057373E-1,4.016273320E-1,9.828796387E0,9.837749060E0
1.617390790E0,1.358709484E-1,3.920505345E-1,9.814431190E0,9.823198264E0
1.619910582E0,1.215057373E-1,4.207809567E-1,9.795277596E0,9.805064173E0
1.622430374E0,1.262941360E-1,4.207809567E-1,9.790489197E0,9.800341093E0
1.624950165E0,1.071405262E-1,4.159925580E-1,9.819219589E0,9.828611410E0
1.627469957E0,1.215057373E-1,4.064157307E-1,9.833584785E0,9.842729658E0
1.629989749E0,1.215057373E-1,4.112041295E-1,9.838373184E0,9.847712394E0
1.632509540E0,1.215057373E-1,4.064157307E-1,9.833584785E0,9.842729658E0
1.635029332E0,1.119289324E-1,3.920505345E-1,9.809642792E0,9.818112008E0
1.637549124E0,1.071405262E-1,4.016273320E-1,9.800065994E0,9.808877464E0
1.640068967E0,1.310825497E-1,3.872621357E-1,9.776124001E0,9.784669390E0
1.642588863E0,1.215057373E-1,3.728969097E-1,9.756970406E0,9.764849576E0
1.645108759E0,1.119289324E-1,3.728969097E-1,9.785700798E0,9.793442719E0
1.647628707E0,9.756372124E-2,3.681085110E-1,9.795277596E0,9.802677478E0
1.650148655E0,8.319851011E-2,3.728969097E-1,9.804854393E0,9.812295540E0
1.652668603E0,9.756372124E-2,3.681085110E-1,9.800065994E0,9.807462263E0
1.655188551E0,9.277531505E-2,3.489548862E-1,9.804854393E0,9.811500723E0
1.657708499E0,8.319851011E-2,3.537433147E-1,9.804854393E0,9.811586314E0
1.660228447E0,6.883329898E-2,3.537433147E-1,9.809642792E0,9.816260187E0
1.662748447E0,6.404489279E-2,3.441664875E-1,9.833584785E0,9.839814127E0
1.665268499E0,5.925649032E-2,3.489548862E-1,9.852738380E0,9.859093997E0
1.667788551E0,4.967968538E-2,3.441664875E-1,9.824007988E0,9.830160303E0
1.670308603E0,5.446808785E-2,3.393780887E-1,9.809642792E0,9.815662788E0
1.672828655E0,4.967968538E-2,3.250128925E-1,9.857526779E0,9.863008448E0
1.675348447E0,4.489128292E-2,3.345896900E-1,9.852738380E0,9.858520126E0
1.677868238E0,4.967968538E-2,3.250128925E-1,9.843161583E0,9.848651248E0
1.680388030E0,4.967968538E-2,3.058592677E-1,9.828796387E0,9.833679697E0
1.682907874E0,5.446808785E-2,2.914940715E-1,9.824007988E0,9.828482513E0
1.685427770E0,5.446808785E-2,2.819172442E-1,9.824007988E0,9.828203145E0
1.687947717E0,7.841010392E-2,2.914940715E-1,9.795277596E0,9.799927556E0
1.690467717E0,9.277531505E-2,3.106476665E-1,9.785700798E0,9.791069877E0
1.692987770E0,7.362170517E-2,2.962824702E-1,9.766547203E0,9.771317604E0
1.695507822E0,8.798690885E-2,3.106476665E-1,9.771335602E0,9.776668303E0
1.698027874E0,9.756372124E-2,3.058592677E-1,9.790489197E0,9.795751492E0
1.700547926E0,9.756372124E-2,2.962824702E-1,9.761758804E0,9.766741367E0
1.703067978E0,9.756372124E-2,2.867056429E-1,9.766547203E0,9.771241634E0
1.705588030E0,1.071405262E-1,3.058592677E-1,9.766547203E0,9.771922700E0
1.708108082E0,1.119289324E-1,3.106476665E-1,9.795277596E0,9.800841455E0
1.710628030E0,1.071405262E-1,3.202244639E-1,9.800065994E0,9.805881719E0
1.713147978E0,1.215057373E-1,3.250128925E-1,9.804854393E0,9.810992136E0
1.715667874E0,1.167173311E-1,3.154360652E-1,9.800065994E0,9.805835831E0
1.718187770E0,9.756372124E-2,3.393780887E-1,9.800065994E0,9.806425937E0
1.720707665E0,1.023521200E-1,3.298012912E-1,9.809642792E0,9.815718850E0
1.723227561E0,1.071405262E-1,3.250128925E-1,9.809642792E0,9.815610229E0
1.725747457E0,1.262941360E-1,3.202244639E-1,9.819219589E0,9.825251511E0
1.728267353E0,1.310825497E-1,3.250128925E-1,9.833584785E0,9.839827526E0
1.730787249E0,1.215057373E-1,3.345896900E-1,9.824007988E0,9.830455068E0
1.733307145E0,1.167173311E-1,3.393780887E-1,9.790489197E0,9.797064822E0
1.735826988E0,1.262941360E-1,3.537433147E-1,9.800065994E0,9.807261495E0
1.738346728E0,1.358709484E-1,3.489548862E-1,9.800065994E0,9.807217950E0
1.740866363E0,1.023521200E-1,3.585317135E-1,9.785700798E0,9.792801492E0
1.743385895E0,1.215057373E-1,3.585317135E-1,9.776124001E0,9.783450777E0
1.745905426E0,1.215057373E-1,3.728969097E-1,9.752182007E0,9.760065043E0
1.748424957E0,1.071405262E-1,3.681085110E-1,9.771335602E0,9.778853839E0
1.750944488E0,9.756372124E-2,3.728969097E-1,9.752182007E0,9.759796344E0
1.753464020E0,9.277531505E-2,3.824737072E-1,9.752182007E0,9.760120250E0
1.755983551E0,1.119289324E-1,3.824737072E-1,9.737816811E0,9.745967908E0
1.758503082E0,1.023521200E-1,3.872621357E-1,9.718663216E0,9.726914342E0
1.761022613E0,9.756372124E-2,3.968389332E-1,9.718663216E0,9.727251129E0
1.763542197E0,1.119289324E-1,3.920505345E-1,9.704298019E0,9.712859093E0
1.766061832E0,9.277531505E-2,3.776853085E-1,9.733028412E0,9.740795425E0
1.768581520E0,7.362170517E-2,3.872621357E-1,9.737816811E0,9.745792341E0
1.771101259E0,7.362170517E-2,3.776853085E-1,9.709086418E0,9.716708569E0
1.773621051E0,8.319851011E-2,3.728969097E-1,9.718663216E0,9.726170305E0
1.776140895E0,9.277531505E-2,3.824737072E-1,9.713874817E0,9.721844339E0
1.778660790E0,9.277531505E-2,3.968389332E-1,9.723451614E0,9.731988476E0
1.781180686E0,7.841010392E-2,4.064157307E-1,9.733028412E0,9.741825494E0
1.783700582E0,7.841010392E-2,4.064157307E-1,9.728240013E0,9.737041421E0
1.786220478E0,6.883329898E-2,4.207809567E-1,9.747393608E0,9.756714446E0
1.788740374E0,7.841010392E-2,4.112041295E-1,9.742605209E0,9.751594395E0
1.791260270E0,7.841010392E-2,4.016273320E-1,9.723451614E0,9.732058567E0
1.793780165E0,8.798690885E-2,3.872621357E-1,9.752182007E0,9.760264728E0
1.796299957E0,9.277531505E-2,3.776853085E-1,9.785700798E0,9.793426038E0
1.798819592E0,1.071405262E-1,3.585317135E-1,9.776124001E0,9.783282913E0
1.801339228E0,1.023521200E-1,3.633201122E-1,9.756970406E0,9.764268992E0
1.803858863E0,9.756372124E-2,3.585317135E-1,9.742605209E0,9.749688197E0
1.806378499E0,9.756372124E-2,3.585317135E-1,9.776124001E0,9.783182721E0
1.808898134E0,1.023521200E-1,3.393780887E-1,9.800065994E0,9.806474746E0
1.811417770E0,1.023521200E-1,3.489548862E-1,9.800065994E0,9.806810846E0
1.813937405E0,1.167173311E-1,3.537433147E-1,9.800065994E0,9.807142844E0
1.816457040E0,1.310825497E-1,3.393780887E-1,9.814431190E0,9.821172013E0
1.818976676E0,1.454477459E-1,3.250128925E-1,9.804854393E0,9.811317857E0
1.821496311E0,1.262941360E-1,3.393780887E-1,9.833584785E0,9.840249866E0
1.824015947E0,1.310825497E-1,3.489548862E-1,9.833584785E0,9.840647432E0
1.826535582E0,1.262941360E-1,3.393780887E-1,9.809642792E0,9.816324129E0
1.829055217E0,1.310825497E-1,3.441664875E-1,9.819219589E0,9.826123679E0
1.831574853E0,1.310825497E-1,3.345896900E-1,9.838373184E0,9.844933713E0
1.834094488E0,1.262941360E-1,3.298012912E-1,9.852738380E0,9.859065508E0
1.836614176E0,1.262941360E-1,3.202244639E-1,9.862315178E0,9.868320758E0
1.839133915E0,1.071405262E-1,3.298012912E-1,9.871891975E0,9.877980520E0
1.841653707E0,1.119289324E-1,3.202244639E-1,9.847949982E0,9.853790673E0
1.844173551E0,1.119289324E-1,3.154360652E-1,9.838373184E0,9.844064959E0
1.846693447E0,1.215057373E-1,2.867056429E-1,9.843161583E0,9.848085790E0
1.849213395E0,1.023521200E-1,2.867056429E-1,9.838373184E0,9.843081987E0
1.851733342E0,9.756372124E-2,2.723404467E-1,9.838373184E0,9.842625407E0
1.854253290E0,9.756372124E-2,2.867056429E-1,9.824007988E0,9.828674974E0
1.856773238E0,1.023521200E-1,2.914940715E-1,9.824007988E0,9.828864517E0
1.859292978E0,1.119289324E-1,2.867056429E-1,9.838373184E0,9.843186228E0
1.861812353E0,1.023521200E-1,2.819172442E-1,9.843161583E0,9.847729852E0
1.864331728E0,6.883329898E-2,2.627636492E-1,9.843161583E0,9.846908789E0
1.866851103E0,7.362170517E-2,2.675520480E-1,9.847949982E0,9.851858865E0
1.869370478E0,8.798690885E-2,2.771288455E-1,9.847949982E0,9.852241417E0
1.871889905E0,7.841010392E-2,2.914940715E-1,9.843161583E0,9.847788934E0
1.874409384E0,7.362170517E-2,3.010708690E-1,9.843161583E0,9.848040098E0
1.876928915E0,7.362170517E-2,3.058592677E-1,9.891045570E0,9.896047318E0
1.879448499E0,7.841010392E-2,3.537433147E-1,9.828796387E0,9.835472581E0
1.881968186E0,6.404489279E-2,3.393780887E-1,9.838373184E0,9.844433257E0
1.884487978E0,5.925649032E-2,3.489548862E-1,9.857526779E0,9.863879310E0
1.887007822E0,6.404489279E-2,3.154360652E-1,9.900622368E0,9.905853064E0
1.889527717E0,3.531447425E-2,2.914940715E-1,9.953294754E0,9.957624836E0
1.892047665E0,3.052607179E-2,3.010708690E-1,9.795277596E0,9.799950953E0
1.894567665E0,5.446808785E-2,2.819172442E-1,9.809642792E0,9.813844089E0
1.897087665E0,4.967968538E-2,2.914940715E-1,9.833584785E0,9.838029610E0
1.899607717E0,3.531447425E-2,3.202244639E-1,9.766547203E0,9.771859347E0
1.902127822E0,5.446808785E-2,3.202244639E-1,9.785700798E0,9.791090368E0
1.904647978E0,7.841010392E-2,3.441664875E-1,9.747393608E0,9.753782900E0
1.907168186E0,7.362170517E-2,3.441664875E-1,9.704298019E0,9.710678183E0
1.909688447E0,6.404489279E-2,3.681085110E-1,9.685144424E0,9.692348949E0
1.912208707E0,6.883329898E-2,3.728969097E-1,9.656414032E0,9.663856481E0
1.914728967E0,7.841010392E-2,3.728969097E-1,9.670779228E0,9.678283481E0
1.917249228E0,8.319851011E-2,3.872621357E-1,9.670779228E0,9.678887582E0
1.919769488E0,8.319851011E-2,3.920505345E-1,9.656414032E0,9.664727496E0
1.922289749E0,7.841010392E-2,3.920505345E-1,9.665990829E0,9.674256069E0
1.924809905E0,8.798690885E-2,3.776853085E-1,9.665990829E0,9.673766929E0
1.927330061E0,7.841010392E-2,3.728969097E-1,9.685144424E0,9.692637555E0
1.929850165E0,7.362170517E-2,3.728969097E-1,9.713874817E0,9.721308359E0
1.932370270E0,7.841010392E-2,3.489548862E-1,9.709086418E0,9.715671708E0
1.934890374E0,9.277531505E-2,3.489548862E-1,9.675567627E0,9.682302705E0
1.937410478E0,1.119289324E-1,3.537433147E-1,9.704298019E0,9.711388287E0
1.939930582E0,1.071405262E-1,3.728969097E-1,9.699509621E0,9.707266252E0
1.942450426E0,1.023521200E-1,3.920505345E-1,9.689932823E0,9.698400780E0
1.944970270E0,1.358709484E-1,4.016273320E-1,9.675567627E0,9.684852830E0
1.947490113E0,1.310825497E-1,3.872621357E-1,9.670779228E0,9.679417621E0
1.950009957E0,1.262941360E-1,3.872621357E-1,9.685144424E0,9.693706448E0
1.952529853E0,1.119289324E-1,3.776853085E-1,9.709086418E0,9.717074321E0
1.955049801E0,1.215057373E-1,3.776853085E-1,9.723451614E0,9.731542588E0
1.957569749E0,1.358709484E-1,3.776853085E-1,9.742605209E0,9.750869878E0
1.960089697E0,1.310825497E-1,3.728969097E-1,9.756970406E0,9.764973438E0
1.962609645E0,1.167173311E-1,3.633201122E-1,9.771335602E0,9.778784377E0
1.965129592E0,1.310825497E-1,3.537433147E-1,9.785700798E0,9.792969778E0
1.967649540E0,1.310825497E-1,3.441664875E-1,9.804854393E0,9.811768591E0
1.970169488E0,1.215057373E-1,3.393780887E-1,9.828796387E0,9.835404391E0
1.972689280E0,1.215057373E-1,3.298012912E-1,9.847949982E0,9.854219978E0
1.975208967E0,1.358709484E-1,3.202244639E-1,9.847949982E0,9.854091712E0
1.977728655E0,1.262941360E-1,3.298012912E-1,9.881468773E0,9.887777516E0
1.980248342E0,1.215057373E-1,3.058592677E-1,9.886257172E0,9.891733640E0
1.982768030E0,1.262941360E-1,3.202244639E-1,9.895833969E0,9.901819220E0
1.985287770E0,1.310825497E-1,3.106476665E-1,9.871891975E0,9.877648292E0
1.987807509E0,1.502361596E-1,3.058592677E-1,9.824007988E0,9.829916263E0
1.990327249E0,1.406593472E-1,2.962824702E-1,9.847949982E0,9.853409927E0
1.992846988E0,1.358709484E-1,2.914940715E-1,9.843161583E0,9.848414068E0
1.995366728E0,1.310825497E-1,2.675520480E-1,9.843161583E0,9.847669607E0
1.997886467E0,1.358709484E-1,2.723404467E-1,9.828796387E0,9.833507444E0
2.000406207E0,1.310825497E-1,2.675520480E-1,9.828796387E0,9.833310996E0
2.002925947E0,1.262941360E-1,2.579752207E-1,9.819219589E0,9.823419708E0
2.005445686E0,1.167173311E-1,2.244564146E-1,9.824007988E0,9.827264959E0
2.007965426E0,1.071405262E-1,2.148796022E-1,9.838373184E0,9.841302721E0
2.010485165E0,9.756372124E-2,2.196680009E-1,9.843161583E0,9.846095808E0
2.013004905E0,9.277531505E-2,2.244564146E-1,9.847949982E0,9.850944461E0
2.015524645E0,7.841010392E-2,2.196680009E-1,9.824007988E0,9.826776436E0
2.018044384E0,9.277531505E-2,2.244564146E-1,9.838373184E0,9.841370578E0
2.020564124E0,6.883329898E-2,2.340332121E-1,9.867103577E0,9.870118670E0
2.023083863E0,6.883329898E-2,2.388216257E-1,9.862315178E0,9.865446491E0
2.025603290E0,6.404489279E-2,2.292448133E-1,9.852738380E0,9.855613047E0
2.028122717E0,4.967968538E-2,2.483984232E-1,9.847949982E0,9.851207474E0
2.030642145E0,5.446808785E-2,2.388216257E-1,9.843161583E0,9.846209042E0
2.033161572E0,5.446808785E-2,2.340332121E-1,9.824007988E0,9.826946182E0
2.035680999E0,5.925649032E-2,2.388216257E-1,9.814431190E0,9.817515301E0
2.038200426E0,4.967968538E-2,2.292448133E-1,9.824007988E0,9.826807936E0
2.040719905E0,4.489128292E-2,2.436100245E-1,9.824007988E0,9.827130508E0
2.043239436E0,4.010287672E-2,2.340332121E-1,9.824007988E0,9.826877059E0
2.045759020E0,5.925649032E-2,2.340332121E-1,9.790489197E0,9.793465249E0
2.048278655E0,5.925649032E-2,2.483984232E-1,9.761758804E0,9.765098467E0
2.050798342E0,6.404489279E-2,2.579752207E-1,9.785700798E0,9.789310143E0
2.053318082E0,6.883329898E-2,2.771288455E-1,9.742605209E0,9.746788942E0
2.055837874E0,6.883329898E-2,2.436100245E-1,9.785700798E0,9.788974613E0
2.058357717E0,7.841010392E-2,2.675520480E-1,9.780912399E0,9.784885263E0
2.060877613E0,8.319851011E-2,2.292448133E-1,9.790489197E0,9.793526121E0
2.063397561E0,6.404489279E-2,2.436100245E-1,9.785700798E0,9.788942113E0
2.065917561E0,7.841010392E-2,2.483984232E-1,9.737816811E0,9.741300024E0
2.068437613E0,9.756372124E-2,2.292448133E-1,9.838373184E0,9.841527258E0
2.070957717E0,5.925649032E-2,2.436100245E-1,9.824007988E0,9.827206629E0
2.073477822E0,8.319851011E-2,2.579752207E-1,9.752182007E0,9.755948293E0
2.075997926E0,1.023521200E-1,2.579752207E-1,9.756970406E0,9.760916897E0
2.078518030E0,1.119289324E-1,2.914940715E-1,9.747393608E0,9.752393503E0
2.081038134E0,1.167173311E-1,3.154360652E-1,9.752182007E0,9.757980157E0
2.083558030E0,1.262941360E-1,3.250128925E-1,9.737816811E0,9.744057667E0
2.086077717E0,1.262941360E-1,3.202244639E-1,9.704298019E0,9.710401329E0
2.088597405E0,1.358709484E-1,3.393780887E-1,9.713874817E0,9.720751121E0
2.091117092E0,1.310825497E-1,3.345896900E-1,9.742605209E0,9.749230183E0
2.093636780E0,1.310825497E-1,3.345896900E-1,9.742605209E0,9.749230183E0
2.096156467E0,1.310825497E-1,3.298012912E-1,9.771335602E0,9.777778427E0
2.098676155E0,1.262941360E-1,3.250128925E-1,9.785700798E0,9.791911136E0
2.101195842E0,1.262941360E-1,3.202244639E-1,9.785700798E0,9.791753368E0
2.103715530E0,1.406593472E-1,3.298012912E-1,9.780912399E0,9.787481867E0
2.106235217E0,1.358709484E-1,3.202244639E-1,9.776124001E0,9.782310826E0
2.108754905E0,1.215057373E-1,3.298012912E-1,9.771335602E0,9.777654728E0
2.111274592E0,1.310825497E-1,3.298012912E-1,9.814431190E0,9.820845744E0
2.113794280E0,1.119289324E-1,3.250128925E-1,9.814431190E0,9.820449127E0
2.116313967E0,9.277531505E-2,3.345896900E-1,9.790489197E0,9.796644131E0
2.118833655E0,1.119289324E-1,3.345896900E-1,9.800065994E0,9.806414831E0
2.121353342E0,9.756372124E-2,3.537433147E-1,9.828796387E0,9.835643925E0
2.123873030E0,7.841010392E-2,3.489548862E-1,9.833584785E0,9.840086757E0
2.126392717E0,7.362170517E-2,3.633201122E-1,9.843161583E0,9.850139675E0
2.128912353E0,8.798690885E-2,3.633201122E-1,9.824007988E0,9.831117747E0
2.131431780E0,6.404489279E-2,3.537433147E-1,9.838373184E0,9.844938953E0
2.133951051E0,6.404489279E-2,3.537433147E-1,9.838373184E0,9.844938953E0
2.136470322E0,5.446808785E-2,3.441664875E-1,9.828796387E0,9.834971060E0
2.138989592E0,5.446808785E-2,3.441664875E-1,9.824007988E0,9.830185669E0
2.141508863E0,5.925649032E-2,3.298012912E-1,9.814431190E0,9.820149684E0
2.144028134E0,4.489128292E-2,3.154360652E-1,9.804854393E0,9.810029807E0
2.146547405E0,4.489128292E-2,3.202244639E-1,9.800065994E0,9.805399147E0
2.149066728E0,4.010287672E-2,3.154360652E-1,9.785700798E0,9.790865552E0
2.151586103E0,3.531447425E-2,3.298012912E-1,9.785700798E0,9.791320448E0
2.154105582E0,4.489128292E-2,3.154360652E-1,9.761758804E0,9.766957054E0
2.156625165E0,5.446808785E-2,3.250128925E-1,9.747393608E0,9.752962745E0
2.159144853E0,6.404489279E-2,3.345896900E-1,9.742605209E0,9.748559292E0
2.161664645E0,6.404489279E-2,3.250128925E-1,9.723451614E0,9.729092785E0
2.164184488E0,7.841010392E-2,3.250128925E-1,9.704298019E0,9.710055694E0
2.166704384E0,8.798690885E-2,3.154360652E-1,9.733028412E0,9.738536013E0
2.169224332E0,8.798690885E-2,3.106476665E-1,9.728240013E0,9.733596325E0
2.171744332E0,8.798690885E-2,3.058592677E-1,9.723451614E0,9.728658843E0
2.174264332E0,8.319851011E-2,3.010708690E-1,9.718663216E0,9.723681420E0
2.176784332E0,9.277531505E-2,3.154360652E-1,9.723451614E0,9.729009121E0
2.179304124E0,9.756372124E-2,3.010708690E-1,9.747393608E0,9.752530159E0
2.181823811E0,1.071405262E-1,2.962824702E-1,9.752182007E0,9.757269920E0
2.184343499E0,1.167173311E-1,2.914940715E-1,9.761758804E0,9.766807395E0
2.186863186E0,1.262941360E-1,3.010708690E-1,9.771335602E0,9.776788497E0
2.189382874E0,1.215057373E-1,2.819172442E-1,9.804854393E0,9.809659048E0
2.191902561E0,1.167173311E-1,2.771288455E-1,9.785700798E0,9.790319885E0
2.194422249E0,1.406593472E-1,2.819172442E-1,9.790489197E0,9.795557212E0
2.196941884E0,1.406593472E-1,3.106476665E-1,9.780912399E0,9.786855184E0
2.199461520E0,1.406593472E-1,3.393780887E-1,9.785700798E0,9.792594276E0
2.201981155E0,1.262941360E-1,3.298012912E-1,9.785700798E0,9.792071242E0
2.204500790E0,1.454477459E-1,3.202244639E-1,9.800065994E0,9.806375082E0
2.207020426E0,1.310825497E-1,3.202244639E-1,9.819219589E0,9.825314228E0
2.209540061E0,1.358709484E-1,3.154360652E-1,9.828796387E0,9.834795333E0
2.212059697E0,1.406593472E-1,3.298012912E-1,9.838373184E0,9.844904309E0
2.214579332E0,1.358709484E-1,3.250128925E-1,9.847949982E0,9.854248482E0
2.217098967E0,1.310825497E-1,3.298012912E-1,9.847949982E0,9.854342716E0
2.219618603E0,1.310825497E-1,3.250128925E-1,9.843161583E0,9.849398254E0
2.222138238E0,1.358709484E-1,3.298012912E-1,9.833584785E0,9.840051806E0
2.224657874E0,1.310825497E-1,3.345896900E-1,9.847949982E0,9.854504135E0
2.227177561E0,1.119289324E-1,3.441664875E-1,9.838373184E0,9.845027454E0
2.229697301E0,1.119289324E-1,3.489548862E-1,9.828796387E0,9.835625858E0
2.232217092E0,1.023521200E-1,3.681085110E-1,9.843161583E0,9.850574084E0
2.234736936E0,1.023521200E-1,3.633201122E-1,9.833584785E0,9.840826550E0
2.237256832E0,1.023521200E-1,3.633201122E-1,9.833584785E0,9.840826550E0
2.239776780E0,9.277531505E-2,3.681085110E-1,9.824007988E0,9.831339893E0
2.242296780E0,8.319851011E-2,3.824737072E-1,9.809642792E0,9.817448743E0
2.244816832E0,7.841010392E-2,3.872621357E-1,9.804854393E0,9.812812531E0
2.247336936E0,6.883329898E-2,3.968389332E-1,9.785700798E0,9.793985872E0
2.249857092E0,7.362170517E-2,3.920505345E-1,9.780912399E0,9.789043423E0
2.252377249E0,6.883329898E-2,3.920505345E-1,9.761758804E0,9.769870859E0
2.254897405E0,7.841010392E-2,4.064157307E-1,9.756970406E0,9.765745921E0
2.257417561E0,7.362170517E-2,3.968389332E-1,9.752182007E0,9.760530477E0
2.259937717E0,6.883329898E-2,3.920505345E-1,9.752182007E0,9.760302021E0
2.262457874E0,4.489128292E-2,4.112041295E-1,9.742605209E0,9.751382483E0
2.264978030E0,5.446808785E-2,4.016273320E-1,9.723451614E0,9.731895118E0
2.267497874E0,4.489128292E-2,4.064157307E-1,9.704298019E0,9.712908371E0
2.270017717E0,4.967968538E-2,3.968389332E-1,9.723451614E0,9.731673058E0
2.272537561E0,4.967968538E-2,4.064157307E-1,9.723451614E0,9.732068286E0
2.275057405E0,4.010287672E-2,4.112041295E-1,9.733028412E0,9.741793425E0
2.277577249E0,4.489128292E-2,4.159925580E-1,9.737816811E0,9.746801592E0
2.280097092E0,4.010287672E-2,4.255693555E-1,9.737816811E0,9.747194148E0
2.282616936E0,3.531447425E-2,4.351461530E-1,9.737816811E0,9.747598449E0
2.285136780E0,4.489128292E-2,4.255693555E-1,9.718663216E0,9.728079934E0
2.287656624E0,4.967968538E-2,4.207809567E-1,9.699509621E0,9.708759528E0
2.290176467E0,6.404489279E-2,4.159925580E-1,9.675567627E0,9.684717882E0
2.292696363E0,6.404489279E-2,4.064157307E-1,9.675567627E0,9.684311251E0
2.295216311E0,7.841010392E-2,4.112041295E-1,9.689932823E0,9.698970827E0
2.297736311E0,8.319851011E-2,3.824737072E-1,9.689932823E0,9.697835132E0
2.300256415E0,7.362170517E-2,3.776853085E-1,9.680356026E0,9.688000781E0
2.302776572E0,1.023521200E-1,3.728969097E-1,9.680356026E0,9.688076220E0
2.305296780E0,9.756372124E-2,3.776853085E-1,9.709086418E0,9.716919468E0
2.307817040E0,1.071405262E-1,3.824737072E-1,9.733028412E0,9.741129672E0
2.310337301E0,9.756372124E-2,3.776853085E-1,9.733028412E0,9.740842209E0
2.312857561E0,1.119289324E-1,3.681085110E-1,9.752182007E0,9.759768740E0
2.315377822E0,1.167173311E-1,3.872621357E-1,9.795277596E0,9.803624741E0
2.317898082E0,1.262941360E-1,3.872621357E-1,9.828796387E0,9.837233380E0
2.320418342E0,1.262941360E-1,3.872621357E-1,9.852738380E0,9.861154890E0
2.322938603E0,1.167173311E-1,3.728969097E-1,9.862315178E0,9.870052467E0
2.325458863E0,1.119289324E-1,3.681085110E-1,9.881468773E0,9.888956319E0
2.327979124E0,1.071405262E-1,3.728969097E-1,9.881468773E0,9.889082683E0
2.330499384E0,1.310825497E-1,3.585317135E-1,9.886257172E0,9.893624639E0
2.333019645E0,1.262941360E-1,3.585317135E-1,9.881468773E0,9.888777493E0
2.335539332E0,1.262941360E-1,3.585317135E-1,9.871891975E0,9.879207781E0
2.338059020E0,1.358709484E-1,3.633201122E-1,9.862315178E0,9.869940379E0
2.340578655E0,1.310825497E-1,3.393780887E-1,9.862315178E0,9.869023295E0
2.343098238E0,1.406593472E-1,3.393780887E-1,9.852738380E0,9.859584988E0
2.345617822E0,1.454477459E-1,3.441664875E-1,9.824007988E0,9.831110749E0
2.348137405E0,1.693897694E-1,3.345896900E-1,9.804854393E0,9.812023890E0
2.350656988E0,1.550245583E-1,3.202244639E-1,9.819219589E0,9.825662810E0
2.353176572E0,1.454477459E-1,3.058592677E-1,9.804854393E0,9.810702045E0
2.355696207E0,1.310825497E-1,3.010708690E-1,9.804854393E0,9.810351470E0
2.358215895E0,1.262941360E-1,3.298012912E-1,9.800065994E0,9.806427106E0
2.360735634E0,1.262941360E-1,3.202244639E-1,9.795277596E0,9.801324252E0
2.363255426E0,9.756372124E-2,3.250128925E-1,9.790489197E0,9.796368244E0
2.365775270E0,9.277531505E-2,3.010708690E-1,9.785700798E0,9.790770707E0
2.368295165E0,9.756372124E-2,3.010708690E-1,9.761758804E0,9.766887800E0
2.370815113E0,9.756372124E-2,3.010708690E-1,9.771335602E0,9.776459573E0
2.373335113E0,8.798690885E-2,3.010708690E-1,9.790489197E0,9.795512446E0
2.375855165E0,7.362170517E-2,3.058592677E-1,9.747393608E0,9.752469031E0
2.378375270E0,7.841010392E-2,2.867056429E-1,9.747393608E0,9.751924447E0
2.380895374E0,6.883329898E-2,2.771288455E-1,9.718663216E0,9.722857251E0
2.383415478E0,5.925649032E-2,2.819172442E-1,9.709086418E0,9.713359241E0
2.385935582E0,6.883329898E-2,2.867056429E-1,9.713874817E0,9.718348734E0
2.388455686E0,6.883329898E-2,2.723404467E-1,9.728240013E0,9.732294750E0
2.390975790E0,7.362170517E-2,2.675520480E-1,9.718663216E0,9.722624078E0
2.393495895E0,6.404489279E-2,2.723404467E-1,9.713874817E0,9.717902810E0
2.396015842E0,7.841010392E-2,2.771288455E-1,9.709086418E0,9.713357175E0
2.398535790E0,7.362170517E-2,2.627636492E-1,9.723451614E0,9.727279999E0
2.401055426E0,7.841010392E-2,2.579752207E-1,9.747393608E0,9.751122064E0
2.403575061E0,8.798690885E-2,2.723404467E-1,9.771335602E0,9.775526096E0
2.406094697E0,9.277531505E-2,2.819172442E-1,9.780912399E0,9.785414245E0
2.408614332E0,8.798690885E-2,2.819172442E-1,9.809642792E0,9.814087361E0
2.411133967E0,7.841010392E-2,2.723404467E-1,9.819219589E0,9.823308547E0
2.413653603E0,7.841010392E-2,2.867056429E-1,9.843161583E0,9.847648360E0
2.416173290E0,8.319851011E-2,2.771288455E-1,9.828796387E0,9.833054500E0
2.418692978E0,7.362170517E-2,2.771288455E-1,9.847949982E0,9.852123598E0
2.421212717E0,9.277531505E-2,2.723404467E-1,9.862315178E0,9.866510895E0
2.423732509E0,1.119289324E-1,2.819172442E-1,9.857526779E0,9.862192435E0
2.426252353E0,1.215057373E-1,2.627636492E-1,9.867103577E0,9.871349521E0
2.428772301E0,1.454477459E-1,2.531868219E-1,9.847949982E0,9.852277780E0
2.431292353E0,1.215057373E-1,2.627636492E-1,9.833584785E0,9.837845197E0
2.433812509E0,1.215057373E-1,2.723404467E-1,9.847949982E0,9.852464250E0
2.436332770E0,1.310825497E-1,2.819172442E-1,9.843161583E0,9.848070365E0
2.438853082E0,1.310825497E-1,2.531868219E-1,9.824007988E0,9.828144237E0
2.441373395E0,1.358709484E-1,2.579752207E-1,9.809642792E0,9.813974925E0
2.443893707E0,1.215057373E-1,2.531868219E-1,9.833584785E0,9.837594063E0
2.446413447E0,1.262941360E-1,2.579752207E-1,9.862315178E0,9.866496951E0
2.448933186E0,1.167173311E-1,2.723404467E-1,9.833584785E0,9.838047672E0
2.451452926E0,9.756372124E-2,2.771288455E-1,9.824007988E0,9.828400278E0
2.453972665E0,9.277531505E-2,2.771288455E-1,9.824007988E0,9.828353911E0
2.456492405E0,8.319851011E-2,2.914940715E-1,9.838373184E0,9.843042096E0
2.459012145E0,6.404489279E-2,2.819172442E-1,9.847949982E0,9.852192544E0
2.461531884E0,6.883329898E-2,2.723404467E-1,9.843161583E0,9.847168999E0
2.464051624E0,5.925649032E-2,2.867056429E-1,9.819219589E0,9.823583094E0
2.466571363E0,5.925649032E-2,2.867056429E-1,9.804854393E0,9.809224288E0
2.469091155E0,4.967968538E-2,2.914940715E-1,9.809642792E0,9.814098459E0
2.471610999E0,4.489128292E-2,2.819172442E-1,9.776124001E0,9.780291051E0
2.474130895E0,4.489128292E-2,2.771288455E-1,9.761758804E0,9.765794928E0
2.476650842E0,5.446808785E-2,2.962824702E-1,9.780912399E0,9.785550441E0
2.479170842E0,4.489128292E-2,2.867056429E-1,9.766547203E0,9.770857671E0
2.481690895E0,4.967968538E-2,2.867056429E-1,9.761758804E0,9.766094570E0
2.484210999E0,4.010287672E-2,2.771288455E-1,9.752182007E0,9.756201235E0
2.486731155E0,3.052607179E-2,2.771288455E-1,9.737816811E0,9.741807249E0
2.489251311E0,3.531447425E-2,2.962824702E-1,9.747393608E0,9.751959422E0
2.491771467E0,3.531447425E-2,2.914940715E-1,9.756970406E0,9.761387576E0
2.494291624E0,5.925649032E-2,2.867056429E-1,9.747393608E0,9.751789252E0
2.496811780E0,7.362170517E-2,2.914940715E-1,9.747393608E0,9.752029076E0
2.499331936E0,7.362170517E-2,2.914940715E-1,9.718663216E0,9.723312380E0
2.501852092E0,6.883329898E-2,3.010708690E-1,9.718663216E0,9.723569118E0
2.504372249E0,8.798690885E-2,3.010708690E-1,9.737816811E0,9.742867217E0
2.506892405E0,8.319851011E-2,3.058592677E-1,9.737816811E0,9.742974295E0
2.509412561E0,9.277531505E-2,3.106476665E-1,9.728240013E0,9.733640788E0
2.511932405E0,9.756372124E-2,3.010708690E-1,9.718663216E0,9.723814943E0
2.514452145E0,1.215057373E-1,2.914940715E-1,9.733028412E0,9.738150466E0
2.516971884E0,1.358709484E-1,2.914940715E-1,9.752182007E0,9.757483467E0
2.519491624E0,1.550245583E-1,2.962824702E-1,9.733028412E0,9.738770866E0
2.522011363E0,1.502361596E-1,3.010708690E-1,9.737816811E0,9.743628216E0
2.524531103E0,1.550245583E-1,2.962824702E-1,9.747393608E0,9.753127604E0
2.527050895E0,1.693897694E-1,2.962824702E-1,9.780912399E0,9.786864848E0
2.529570738E0,1.693897694E-1,3.058592677E-1,9.785700798E0,9.791944796E0
2.532090686E0,1.789665818E-1,3.058592677E-1,9.790489197E0,9.796900410E0
2.534610738E0,1.837549806E-1,3.010708690E-1,9.828796387E0,9.835123180E0
2.537130895E0,1.789665818E-1,3.345896900E-1,9.857526779E0,9.864827089E0
2.539651155E0,1.693897694E-1,3.345896900E-1,9.862315178E0,9.869442934E0
2.542171467E0,1.741781682E-1,3.441664875E-1,9.867103577E0,9.874640328E0
2.544691832E0,1.598129570E-1,3.585317135E-1,9.876680374E0,9.884477750E0
2.547212197E0,1.502361596E-1,3.585317135E-1,9.895833969E0,9.903466355E0
2.549732561E0,1.406593472E-1,3.585317135E-1,9.886257172E0,9.893756158E0
2.552252926E0,1.406593472E-1,3.585317135E-1,9.891045570E0,9.898540929E0
2.554772613E0,1.262941360E-1,3.776853085E-1,9.924564362E0,9.932551242E0
2.557292301E0,1.310825497E-1,3.776853085E-1,9.929352760E0,9.937397802E0
2.559811988E0,1.071405262E-1,3.585317135E-1,9.924564362E0,9.931616276E0
2.562331676E0,1.071405262E-1,3.537433147E-1,9.881468773E0,9.888378964E0
2.564851363E0,8.798690885E-2,3.633201122E-1,9.867103577E0,9.874182305E0
2.567371103E0,9.277531505E-2,3.776853085E-1,9.862315178E0,9.869980452E0
2.569890895E0,9.277531505E-2,3.824737072E-1,9.847949982E0,9.855811090E0
2.572410738E0,8.798690885E-2,4.016273320E-1,9.828796387E0,9.837392166E0
2.574930634E0,7.841010392E-2,4.016273320E-1,9.819219589E0,9.827742671E0
2.577450582E0,5.925649032E-2,4.016273320E-1,9.814431190E0,9.822824209E0
2.579970582E0,5.925649032E-2,4.016273320E-1,9.790489197E0,9.798902722E0
2.582490634E0,6.404489279E-2,3.968389332E-1,9.776124001E0,9.784384670E0
2.585010738E0,5.925649032E-2,4.064157307E-1,9.756970406E0,9.765610917E0
2.587530895E0,4.489128292E-2,4.159925580E-1,9.742605209E0,9.751585579E0
2.590051051E0,4.010287672E-2,4.399345517E-1,9.718663216E0,9.728698030E0
2.592571207E0,3.531447425E-2,4.303577542E-1,9.713874817E0,9.723467430E0
2.595091363E0,3.052607179E-2,4.112041295E-1,9.718663216E0,9.727406405E0
2.597611520E0,2.573766746E-2,4.303577542E-1,9.713874817E0,9.723437365E0
2.600131676E0,3.052607179E-2,4.207809567E-1,9.689932823E0,9.699112669E0
2.602651832E0,2.094926499E-2,4.064157307E-1,9.675567627E0,9.684122135E0
2.605171780E0,2.094926499E-2,4.064157307E-1,9.689932823E0,9.698474660E0
2.607691520E0,3.052607179E-2,4.255693555E-1,9.689932823E0,9.699321586E0
2.610211155E0,4.010287672E-2,4.399345517E-1,9.685144424E0,9.695213931E0
2.612730738E0,4.010287672E-2,4.303577542E-1,9.665990829E0,9.675649578E0
2.615250322E0,4.967968538E-2,4.255693555E-1,9.665990829E0,9.675482213E0
2.617769905E0,6.404489279E-2,4.255693555E-1,9.675567627E0,9.685133965E0
2.620289488E0,5.925649032E-2,4.303577542E-1,9.680356026E0,9.690098653E0
2.622809072E0,6.404489279E-2,4.255693555E-1,9.699509621E0,9.709052369E0
2.625328707E0,5.925649032E-2,4.447229803E-1,9.704298019E0,9.714663654E0
2.627848447E0,6.404489279E-2,4.447229803E-1,9.713874817E0,9.724260601E0
2.630368290E0,7.841010392E-2,4.399345517E-1,9.733028412E0,9.743281409E0
2.632888290E0,7.841010392E-2,4.255693555E-1,9.728240013E0,9.737859681E0
2.635408447E0,8.319851011E-2,4.112041295E-1,9.742605209E0,9.751634073E0
2.637928759E0,8.798690885E-2,4.112041295E-1,9.776124001E0,9.785163821E0
2.640449176E0,9.277531505E-2,4.064157307E-1,9.809642792E0,9.818496459E0
2.642969697E0,8.798690885E-2,4.112041295E-1,9.824007988E0,9.833003787E0
2.645490270E0,8.798690885E-2,4.016273320E-1,9.819219589E0,9.827823744E0
2.648010842E0,9.756372124E-2,3.872621357E-1,9.804854393E0,9.812984271E0
2.650531051E0,8.798690885E-2,3.920505345E-1,9.833584785E0,9.841790236E0
2.653050999E0,1.023521200E-1,3.824737072E-1,9.828796387E0,9.836767787E0
2.655570895E0,1.167173311E-1,3.681085110E-1,9.819219589E0,9.826810274E0
2.658090790E0,1.071405262E-1,3.681085110E-1,9.838373184E0,9.845840232E0
2.660610686E0,9.277531505E-2,3.776853085E-1,9.833584785E0,9.841272437E0
2.663130582E0,1.119289324E-1,3.633201122E-1,9.819219589E0,9.826576359E0
2.665650478E0,1.262941360E-1,3.585317135E-1,9.819219589E0,9.826574609E0
2.668170374E0,1.358709484E-1,3.633201122E-1,9.819219589E0,9.826878231E0
2.670690165E0,1.358709484E-1,3.441664875E-1,9.819219589E0,9.826188723E0
2.673209905E0,1.262941360E-1,3.537433147E-1,9.828796387E0,9.835970870E0
2.675729540E0,1.215057373E-1,3.489548862E-1,9.833584785E0,9.840524523E0
2.678249176E0,1.215057373E-1,3.345896900E-1,9.819219589E0,9.825669812E0
2.680768811E0,1.406593472E-1,3.202244639E-1,9.804854393E0,9.811090583E0
2.683288447E0,1.406593472E-1,3.058592677E-1,9.790489197E0,9.796275499E0
2.685808082E0,1.406593472E-1,3.106476665E-1,9.766547203E0,9.772498723E0
2.688327770E0,1.454477459E-1,3.250128925E-1,9.785700798E0,9.792176905E0
2.690847509E0,1.358709484E-1,3.154360652E-1,9.790489197E0,9.796511600E0
2.693367301E0,1.215057373E-1,2.962824702E-1,9.766547203E0,9.771795701E0
2.695887145E0,1.215057373E-1,2.819172442E-1,9.766547203E0,9.771370694E0
2.698407092E0,1.262941360E-1,2.914940715E-1,9.761758804E0,9.766926536E0
2.700927145E0,1.358709484E-1,2.962824702E-1,9.756970406E0,9.762413416E0
2.703447249E0,1.406593472E-1,2.867056429E-1,9.752182007E0,9.757409445E0
2.705967405E0,1.167173311E-1,2.962824702E-1,9.752182007E0,9.757379778E0
2.708487613E0,1.167173311E-1,3.010708690E-1,9.733028412E0,9.738383268E0
2.711007822E0,1.023521200E-1,3.058592677E-1,9.742605209E0,9.747942455E0
2.713528030E0,9.756372124E-2,2.962824702E-1,9.766547203E0,9.771527324E0
2.716048238E0,1.023521200E-1,3.010708690E-1,9.766547203E0,9.771722668E0
2.718568134E0,8.798690885E-2,2.914940715E-1,9.800065994E0,9.804794948E0
2.721087613E0,9.277531505E-2,2.962824702E-1,9.780912399E0,9.785838642E0
2.723607092E0,9.756372124E-2,2.867056429E-1,9.776124001E0,9.780813835E0
2.726126572E0,8.798690885E-2,2.819172442E-1,9.771335602E0,9.775797588E0
2.728646103E0,8.798690885E-2,2.723404467E-1,9.800065994E0,9.804244209E0
2.731165686E0,6.883329898E-2,2.819172442E-1,9.795277596E0,9.799575426E0
2.733685322E0,6.404489279E-2,2.819172442E-1,9.824007988E0,9.828260885E0
2.736205009E0,6.404489279E-2,2.867056429E-1,9.843161583E0,9.847544456E0
2.738724801E0,6.404489279E-2,2.914940715E-1,9.843161583E0,9.847685032E0
2.741244645E0,5.925649032E-2,2.819172442E-1,9.833584785E0,9.837803535E0
2.743764540E0,7.841010392E-2,3.058592677E-1,9.862315178E0,9.867368378E0
2.746284488E0,6.883329898E-2,3.010708690E-1,9.871891975E0,9.876721767E0
2.748804488E0,4.967968538E-2,3.010708690E-1,9.847949982E0,9.852676316E0
2.751324540E0,4.967968538E-2,3.010708690E-1,9.857526779E0,9.862248524E0
2.753844645E0,5.925649032E-2,3.106476665E-1,9.867103577E0,9.872170293E0
2.756364749E0,5.925649032E-2,3.250128925E-1,9.857526779E0,9.863061336E0
2.758884853E0,6.404489279E-2,3.202244639E-1,9.838373184E0,9.843791565E0
2.761404957E0,4.967968538E-2,3.058592677E-1,9.824007988E0,9.828893677E0
2.763924801E0,7.362170517E-2,2.962824702E-1,9.843161583E0,9.847894872E0
2.766444645E0,5.925649032E-2,3.106476665E-1,9.833584785E0,9.838668763E0
2.768964488E0,7.362170517E-2,2.914940715E-1,9.819219589E0,9.823821165E0
2.771484332E0,7.362170517E-2,2.867056429E-1,9.828796387E0,9.833252702E0
2.774004228E0,6.404489279E-2,2.914940715E-1,9.814431190E0,9.818967875E0
2.776524176E0,4.489128292E-2,3.010708690E-1,9.780912399E0,9.785647973E0
2.779044176E0,5.925649032E-2,3.058592677E-1,9.766547203E0,9.771515005E0
2.781564228E0,6.404489279E-2,2.914940715E-1,9.756970406E0,9.761533795E0
2.784084332E0,7.841010392E-2,3.154360652E-1,9.756970406E0,9.762382883E0
2.786604436E0,7.841010392E-2,3.058592677E-1,9.756970406E0,9.762078136E0
2.789124540E0,9.277531505E-2,3.058592677E-1,9.752182007E0,9.757418257E0
2.791644645E0,9.277531505E-2,2.962824702E-1,9.747393608E0,9.752336782E0
2.794164749E0,1.071405262E-1,2.867056429E-1,9.747393608E0,9.752197771E0
2.796684645E0,1.023521200E-1,3.010708690E-1,9.733028412E0,9.738221690E0
2.799204228E0,9.756372124E-2,3.106476665E-1,9.756970406E0,9.762401966E0
2.801723811E0,8.798690885E-2,3.106476665E-1,9.756970406E0,9.762310954E0
2.804243395E0,8.319851011E-2,3.058592677E-1,9.766547203E0,9.771689524E0
2.806762978E0,8.798690885E-2,2.962824702E-1,9.776124001E0,9.781008408E0
2.809282561E0,1.023521200E-1,2.867056429E-1,9.761758804E0,9.766504545E0
2.811802145E0,1.119289324E-1,2.962824702E-1,9.785700798E0,9.790824863E0
2.814321728E0,9.756372124E-2,3.010708690E-1,9.785700798E0,9.790817252E0
2.816841207E0,9.756372124E-2,2.962824702E-1,9.780912399E0,9.785885210E0
2.819360374E0,8.798690885E-2,2.819172442E-1,9.766547203E0,9.771011375E0
2.821879540E0,1.023521200E-1,2.675520480E-1,9.756970406E0,9.761174701E0
2.824398707E0,1.023521200E-1,2.867056429E-1,9.776124001E0,9.780862772E0
2.826917770E0,1.023521200E-1,2.819172442E-1,9.790489197E0,9.795082031E0
2.829436780E0,9.277531505E-2,2.819172442E-1,9.819219589E0,9.823703881E0
2.831955790E0,1.071405262E-1,2.771288455E-1,9.828796387E0,9.833286221E0
2.834474801E0,1.167173311E-1,2.867056429E-1,9.843161583E0,9.848027874E0
2.836993811E0,1.119289324E-1,2.867056429E-1,9.824007988E0,9.828828066E0
2.839512822E0,1.119289324E-1,2.867056429E-1,9.828796387E0,9.833614118E0
2.842031884E0,9.756372124E-2,2.962824702E-1,9.804854393E0,9.809815067E0
2.844550999E0,9.756372124E-2,2.867056429E-1,9.824007988E0,9.828674974E0
2.847070165E0,8.319851011E-2,2.867056429E-1,9.833584785E0,9.838115259E0
2.849589384E0,8.798690885E-2,2.962824702E-1,9.828796387E0,9.833654631E0
2.852108655E0,8.798690885E-2,2.867056429E-1,9.814431190E0,9.819012242E0
2.854627978E0,1.071405262E-1,3.058592677E-1,9.800065994E0,9.805423116E0
2.857147353E0,1.071405262E-1,2.723404467E-1,9.795277596E0,9.799648544E0
2.859666728E0,9.277531505E-2,2.723404467E-1,9.776124001E0,9.780356694E0
2.862186103E0,1.023521200E-1,2.867056429E-1,9.785700798E0,9.790434934E0
2.864705478E0,1.119289324E-1,2.914940715E-1,9.771335602E0,9.776323252E0
2.867224853E0,1.071405262E-1,3.106476665E-1,9.766547203E0,9.772073748E0
2.869744228E0,1.023521200E-1,3.154360652E-1,9.776124001E0,9.781747101E0
2.872263603E0,8.798690885E-2,3.106476665E-1,9.756970406E0,9.762310954E0
2.874782978E0,8.319851011E-2,3.106476665E-1,9.771335602E0,9.776626382E0
2.877302353E0,8.798690885E-2,3.298012912E-1,9.766547203E0,9.772510162E0
2.879821728E0,1.071405262E-1,3.345896900E-1,9.761758804E0,9.768078844E0
2.882341103E0,1.023521200E-1,3.202244639E-1,9.776124001E0,9.781902685E0
2.884860478E0,1.023521200E-1,3.441664875E-1,9.756970406E0,9.763575064E0
2.887379853E0,1.167173311E-1,3.489548862E-1,9.761758804E0,9.768691182E0
2.889899228E0,1.023521200E-1,3.393780887E-1,9.747393608E0,9.753836968E0
2.892418603E0,9.756372124E-2,3.489548862E-1,9.747393608E0,9.754125811E0
2.894937978E0,9.756372124E-2,3.489548862E-1,9.756970406E0,9.763696005E0
2.897457405E0,1.023521200E-1,3.537433147E-1,9.771335602E0,9.778272329E0
2.899976884E0,1.167173311E-1,3.776853085E-1,9.761758804E0,9.769759674E0
2.902496415E0,1.167173311E-1,3.728969097E-1,9.766547203E0,9.774360302E0
2.905016051E0,1.167173311E-1,3.824737072E-1,9.761758804E0,9.769945958E0
2.907535790E0,1.262941360E-1,3.920505345E-1,9.761758804E0,9.770444656E0
2.910055634E0,1.215057373E-1,3.872621357E-1,9.752182007E0,9.760624442E0
2.912575582E0,1.262941360E-1,3.872621357E-1,9.747393608E0,9.755901000E0
2.915095634E0,1.262941360E-1,4.016273320E-1,9.761758804E0,9.770833622E0
2.917615738E0,1.071405262E-1,4.016273320E-1,9.785700798E0,9.794525191E0
2.920135895E0,1.119289324E-1,3.968389332E-1,9.795277596E0,9.803951877E0
2.922656103E0,1.023521200E-1,3.968389332E-1,9.795277596E0,9.803847218E0
2.925176363E0,1.119289324E-1,3.872621357E-1,9.780912399E0,9.789215873E0
2.927696728E0,1.071405262E-1,3.920505345E-1,9.790489197E0,9.798921442E0
2.930217145E0,9.277531505E-2,3.968389332E-1,9.809642792E0,9.818104710E0
2.932737613E0,8.798690885E-2,4.064157307E-1,9.824007988E0,9.832804706E0
2.935258134E0,9.277531505E-2,4.159925580E-1,9.824007988E0,9.833249209E0
2.937778707E0,9.277531505E-2,4.351461530E-1,9.809642792E0,9.819727651E0
2.940299280E0,7.841010392E-2,4.255693555E-1,9.795277596E0,9.804831492E0
2.942819540E0,8.798690885E-2,4.016273320E-1,9.809642792E0,9.818255339E0
2.945339332E0,7.841010392E-2,4.112041295E-1,9.833584785E0,9.842490880E0
2.947858967E0,6.883329898E-2,4.016273320E-1,9.804854393E0,9.813318104E0
2.950378603E0,8.319851011E-2,4.016273320E-1,9.804854393E0,9.813429379E0
2.952898238E0,7.362170517E-2,3.968389332E-1,9.804854393E0,9.813158052E0
2.955417874E0,7.841010392E-2,3.824737072E-1,9.780912399E0,9.788701734E0
2.957937509E0,8.798690885E-2,3.776853085E-1,9.771335602E0,9.779027934E0
2.960457145E0,7.841010392E-2,3.728969097E-1,9.761758804E0,9.769193171E0
2.962976780E0,7.841010392E-2,3.824737072E-1,9.752182007E0,9.759994271E0
2.965496467E0,6.404489279E-2,3.872621357E-1,9.747393608E0,9.755293735E0
2.968016207E0,7.841010392E-2,3.633201122E-1,9.771335602E0,9.778402175E0
2.970535999E0,7.841010392E-2,3.537433147E-1,9.785700798E0,9.792406374E0
2.973055842E0,6.404489279E-2,3.537433147E-1,9.766547203E0,9.773161226E0
2.975575738E0,8.319851011E-2,3.393780887E-1,9.752182007E0,9.758440110E0
2.978095686E0,9.756372124E-2,3.537433147E-1,9.752182007E0,9.759083303E0
2.980615634E0,8.798690885E-2,3.345896900E-1,9.742605209E0,9.748745982E0
2.983135582E0,7.841010392E-2,3.345896900E-1,9.742605209E0,9.748664251E0
2.985655582E0,9.756372124E-2,3.298012912E-1,9.742605209E0,9.748673953E0
2.988175582E0,1.119289324E-1,3.298012912E-1,9.752182007E0,9.758398991E0
2.990695582E0,1.023521200E-1,3.202244639E-1,9.761758804E0,9.767545987E0
2.993215582E0,1.023521200E-1,3.202244639E-1,9.756970406E0,9.762760427E0
2.995735582E0,9.756372124E-2,3.106476665E-1,9.785700798E0,9.791116421E0
2.998255582E0,9.756372124E-2,3.106476665E-1,9.780912399E0,9.786330672E0
3.000775582E0,1.167173311E-1,2.962824702E-1,9.785700798E0,9.790880775E0
3.003295634E0,1.167173311E-1,3.058592677E-1,9.756970406E0,9.762460977E0
3.005815738E0,1.167173311E-1,2.867056429E-1,9.761758804E0,9.766665655E0
3.008335842E0,1.023521200E-1,2.819172442E-1,9.790489197E0,9.795082031E0
3.010855947E0,1.071405262E-1,2.771288455E-1,9.804854393E0,9.809355186E0
3.013376051E0,1.167173311E-1,2.771288455E-1,9.800065994E0,9.804678313E0
3.015896155E0,1.167173311E-1,2.627636492E-1,9.804854393E0,9.809069137E0
3.018416259E0,1.071405262E-1,2.723404467E-1,9.824007988E0,9.828366159E0
3.020936363E0,1.071405262E-1,2.867056429E-1,9.804854393E0,9.809630415E0
3.023456467E0,1.071405262E-1,3.058592677E-1,9.795277596E0,9.800637334E0
3.025976572E0,1.023521200E-1,2.962824702E-1,9.814431190E0,9.819435771E0
3.028496676E0,9.756372124E-2,2.962824702E-1,9.824007988E0,9.828958995E0
3.031016780E0,1.023521200E-1,3.010708690E-1,9.847949982E0,9.853082689E0
3.033536884E0,1.071405262E-1,2.914940715E-1,9.828796387E0,9.833701556E0
3.036056988E0,9.756372124E-2,2.962824702E-1,9.833584785E0,9.838530973E0
3.038577092E0,9.756372124E-2,2.962824702E-1,9.838373184E0,9.843316966E0
3.041097145E0,8.798690885E-2,2.819172442E-1,9.833584785E0,9.838018538E0
3.043616936E0,7.362170517E-2,2.867056429E-1,9.843161583E0,9.847611397E0
3.046136728E0,7.362170517E-2,2.723404467E-1,9.838373184E0,9.842417202E0
3.048656520E0,6.883329898E-2,2.867056429E-1,9.800065994E0,9.804500581E0
3.051176311E0,7.362170517E-2,2.914940715E-1,9.790489197E0,9.795104270E0
3.053696155E0,6.883329898E-2,3.106476665E-1,9.780912399E0,9.786086417E0
3.056216051E0,8.319851011E-2,3.058592677E-1,9.785700798E0,9.790833059E0
3.058735999E0,7.362170517E-2,3.202244639E-1,9.790489197E0,9.796001356E0
3.061255999E0,8.319851011E-2,3.202244639E-1,9.766547203E0,9.772149711E0
3.063775999E0,6.883329898E-2,3.106476665E-1,9.752182007E0,9.757371259E0
3.066295999E0,6.883329898E-2,3.106476665E-1,9.761758804E0,9.766942968E0
3.068815999E0,6.883329898E-2,3.154360652E-1,9.771335602E0,9.776668010E0
3.071335999E0,4.489128292E-2,3.154360652E-1,9.742605209E0,9.747813673E0
3.073855999E0,7.362170517E-2,3.202244639E-1,9.728240013E0,9.733787424E0
3.076375999E0,7.362170517E-2,3.250128925E-1,9.747393608E0,9.753088520E0
3.078895999E0,5.925649032E-2,3.298012912E-1,9.737816811E0,9.743580269E0
3.081415999E0,5.446808785E-2,3.154360652E-1,9.752182007E0,9.757434119E0
3.083935842E0,5.446808785E-2,3.250128925E-1,9.733028412E0,9.738605764E0
3.086455582E0,6.883329898E-2,3.202244639E-1,9.756970406E0,9.762466554E0
3.088975322E0,7.362170517E-2,3.202244639E-1,9.742605209E0,9.748144445E0
3.091495009E0,7.362170517E-2,3.298012912E-1,9.742605209E0,9.748463741E0
3.094014697E0,7.841010392E-2,3.106476665E-1,9.761758804E0,9.767015157E0
3.096534384E0,9.277531505E-2,3.106476665E-1,9.752182007E0,9.757569530E0
3.099054072E0,7.841010392E-2,3.345896900E-1,9.761758804E0,9.767805964E0
3.101573759E0,8.319851011E-2,3.393780887E-1,9.756970406E0,9.763225439E0
3.104093447E0,8.319851011E-2,3.345896900E-1,9.756970406E0,9.763060163E0
3.106613134E0,8.798690885E-2,3.250128925E-1,9.761758804E0,9.767564181E0
3.109132874E0,9.756372124E-2,3.298012912E-1,9.785700798E0,9.791742832E0
3.111652665E0,1.023521200E-1,3.298012912E-1,9.790489197E0,9.796577135E0
3.114172509E0,1.167173311E-1,3.298012912E-1,9.800065994E0,9.806308445E0
3.116692405E0,1.119289324E-1,3.202244639E-1,9.800065994E0,9.805935207E0
3.119212353E0,1.023521200E-1,3.202244639E-1,9.780912399E0,9.786688256E0
3.121732353E0,1.023521200E-1,3.298012912E-1,9.795277596E0,9.801362559E0
3.124252405E0,1.071405262E-1,3.154360652E-1,9.814431190E0,9.820083431E0
3.126772509E0,9.277531505E-2,3.010708690E-1,9.819219589E0,9.824272200E0
3.129292665E0,9.277531505E-2,2.914940715E-1,9.819219589E0,9.823983377E0
3.131812822E0,9.756372124E-2,2.962824702E-1,9.824007988E0,9.828958995E0
3.134332978E0,1.023521200E-1,2.962824702E-1,9.809642792E0,9.814649813E0
3.136853134E0,9.756372124E-2,2.962824702E-1,9.819219589E0,9.824173010E0
3.139372874E0,9.756372124E-2,3.010708690E-1,9.824007988E0,9.829104501E0
3.141892561E0,8.798690885E-2,3.010708690E-1,9.809642792E0,9.814656238E0
3.144412249E0,1.167173311E-1,3.058592677E-1,9.819219589E0,9.824675372E0
3.146931936E0,1.023521200E-1,3.058592677E-1,9.809642792E0,9.814943584E0
3.149451624E0,9.756372124E-2,3.058592677E-1,9.833584785E0,9.838824031E0
3.151971311E0,7.841010392E-2,2.962824702E-1,9.819219589E0,9.824001465E0
3.154490999E0,8.798690885E-2,2.962824702E-1,9.795277596E0,9.800152457E0
3.157010738E0,9.756372124E-2,2.914940715E-1,9.800065994E0,9.804885566E0
3.159530530E0,1.071405262E-1,2.819172442E-1,9.804854393E0,9.809491633E0
3.162050374E0,1.215057373E-1,2.771288455E-1,9.809642792E0,9.814308725E0
3.164570270E0,9.277531505E-2,2.819172442E-1,9.814431190E0,9.818917669E0
3.167090217E0,9.277531505E-2,2.962824702E-1,9.804854393E0,9.809768612E0
3.169610217E0,1.071405262E-1,2.723404467E-1,9.809642792E0,9.814007342E0
3.172130270E0,9.756372124E-2,2.723404467E-1,9.790489197E0,9.794762208E0
3.174650374E0,8.798690885E-2,2.723404467E-1,9.795277596E0,9.799457852E0
3.177170530E0,1.071405262E-1,2.819172442E-1,9.804854393E0,9.809491633E0
3.179690738E0,9.277531505E-2,2.819172442E-1,9.819219589E0,9.823703881E0
3.182210947E0,1.071405262E-1,2.819172442E-1,9.785700798E0,9.790347110E0
3.184731155E0,9.756372124E-2,2.867056429E-1,9.780912399E0,9.785599939E0
3.187251363E0,9.756372124E-2,3.010708690E-1,9.776124001E0,9.781245464E0
3.189771572E0,1.023521200E-1,2.962824702E-1,9.780912399E0,9.785934121E0
3.192291780E0,1.071405262E-1,3.010708690E-1,9.776124001E0,9.781345676E0
3.194811936E0,1.119289324E-1,3.058592677E-1,9.790489197E0,9.795905098E0
3.197331572E0,1.071405262E-1,3.058592677E-1,9.780912399E0,9.786280006E0
3.199851207E0,1.023521200E-1,3.058592677E-1,9.795277596E0,9.800586157E0
3.202370842E0,1.167173311E-1,3.058592677E-1,9.785700798E0,9.791175258E0
3.204890478E0,1.167173311E-1,3.154360652E-1,9.776124001E0,9.781907959E0
3.207410113E0,1.215057373E-1,3.106476665E-1,9.771335602E0,9.777027414E0
3.209929749E0,1.167173311E-1,3.441664875E-1,9.785700798E0,9.792446763E0
3.212449436E0,1.215057373E-1,3.489548862E-1,9.761758804E0,9.768749567E0
3.214969176E0,1.167173311E-1,3.298012912E-1,9.785700798E0,9.791952407E0
3.217488967E0,1.071405262E-1,3.393780887E-1,9.790489197E0,9.796955409E0
3.220008863E0,1.119289324E-1,3.393780887E-1,9.804854393E0,9.811364596E0
3.222528863E0,1.071405262E-1,3.393780887E-1,9.800065994E0,9.806525892E0
3.225048915E0,1.023521200E-1,3.441664875E-1,9.790489197E0,9.797071258E0
3.227569020E0,1.119289324E-1,3.441664875E-1,9.795277596E0,9.801961122E0
3.230089176E0,1.119289324E-1,3.537433147E-1,9.800065994E0,9.807087025E0
3.232609384E0,1.119289324E-1,3.537433147E-1,9.809642792E0,9.816656973E0
3.235129645E0,1.071405262E-1,3.633201122E-1,9.814431190E0,9.821738145E0
3.237649957E0,9.756372124E-2,3.681085110E-1,9.780912399E0,9.788323141E0
3.240170270E0,1.023521200E-1,3.681085110E-1,9.785700798E0,9.793156791E0
3.242690582E0,9.756372124E-2,3.872621357E-1,9.809642792E0,9.817768705E0
3.245210895E0,1.023521200E-1,3.633201122E-1,9.800065994E0,9.807332510E0
3.247731207E0,1.023521200E-1,3.681085110E-1,9.795277596E0,9.802726305E0
3.250251520E0,1.023521200E-1,3.681085110E-1,9.804854393E0,9.812295832E0
3.252771676E0,8.319851011E-2,3.728969097E-1,9.804854393E0,9.812295540E0
3.255291363E0,9.277531505E-2,3.728969097E-1,9.814431190E0,9.821950873E0
3.257810895E0,9.756372124E-2,3.728969097E-1,9.800065994E0,9.807643156E0
3.260330426E0,1.071405262E-1,3.968389332E-1,9.780912399E0,9.789545832E0
3.262849957E0,1.023521200E-1,3.824737072E-1,9.776124001E0,9.784138315E0
3.265369540E0,7.841010392E-2,3.824737072E-1,9.766547203E0,9.774347986E0
3.267889176E0,8.798690885E-2,3.728969097E-1,9.780912399E0,9.788413618E0
3.270408915E0,1.023521200E-1,3.920505345E-1,9.790489197E0,9.798870256E0
3.272928759E0,9.756372124E-2,3.920505345E-1,9.785700798E0,9.794037084E0
3.275448707E0,9.277531505E-2,3.681085110E-1,9.790489197E0,9.797846184E0
3.277968759E0,9.277531505E-2,3.728969097E-1,9.776124001E0,9.783673126E0
3.280488863E0,8.798690885E-2,3.776853085E-1,9.742605209E0,9.750320208E0
3.283009020E0,8.319851011E-2,3.824737072E-1,9.761758804E0,9.769603016E0
3.285529228E0,1.023521200E-1,3.872621357E-1,9.761758804E0,9.769973535E0
3.288049488E0,8.798690885E-2,3.872621357E-1,9.780912399E0,9.788971397E0
3.290569801E0,8.798690885E-2,3.728969097E-1,9.785700798E0,9.793198349E0
3.293090113E0,9.756372124E-2,3.728969097E-1,9.780912399E0,9.788504388E0
3.295610426E0,9.756372124E-2,3.776853085E-1,9.785700798E0,9.793472570E0
3.298130738E0,9.756372124E-2,3.728969097E-1,9.766547203E0,9.774150350E0
3.300650842E0,9.756372124E-2,3.585317135E-1,9.761758804E0,9.768827904E0
3.303170947E0,1.215057373E-1,3.633201122E-1,9.737816811E0,9.745349731E0
3.305691051E0,1.167173311E-1,3.728969097E-1,9.747393608E0,9.755222047E0
3.308210842E0,9.756372124E-2,3.585317135E-1,9.761758804E0,9.768827904E0
3.310730582E0,9.277531505E-2,3.681085110E-1,9.776124001E0,9.783491790E0
3.313250270E0,1.071405262E-1,3.585317135E-1,9.780912399E0,9.788067810E0
3.315769905E0,1.071405262E-1,3.489548862E-1,9.761758804E0,9.768581451E0
3.318289436E0,1.119289324E-1,3.681085110E-1,9.785700798E0,9.793261564E0
3.320808967E0,1.215057373E-1,3.585317135E-1,9.785700798E0,9.793020410E0
3.323328342E0,1.023521200E-1,3.489548862E-1,9.795277596E0,9.802025742E0
3.325847717E0,1.023521200E-1,3.393780887E-1,9.780912399E0,9.787333692E0
3.328367092E0,9.756372124E-2,3.393780887E-1,9.795277596E0,9.801640645E0
3.330886467E0,1.023521200E-1,3.298012912E-1,9.795277596E0,9.801362559E0
3.333405895E0,1.023521200E-1,3.298012912E-1,9.804854393E0,9.810933417E0
3.335925374E0,1.023521200E-1,3.298012912E-1,9.809642792E0,9.815718850E0
3.338444905E0,1.167173311E-1,3.010708690E-1,9.795277596E0,9.800598440E0
3.340964488E0,1.071405262E-1,3.154360652E-1,9.804854393E0,9.810512151E0
3.343484124E0,9.756372124E-2,3.154360652E-1,9.819219589E0,9.824769307E0
3.346003811E0,1.119289324E-1,3.010708690E-1,9.814431190E0,9.819685909E0
3.348523551E0,8.798690885E-2,3.106476665E-1,9.790489197E0,9.795811471E0
3.351043342E0,8.319851011E-2,3.250128925E-1,9.800065994E0,9.805806895E0
3.353563186E0,9.277531505E-2,3.298012912E-1,9.800065994E0,9.806052704E0
3.356083082E0,9.756372124E-2,3.250128925E-1,9.804854393E0,9.810724832E0
3.358603030E0,9.277531505E-2,3.010708690E-1,9.804854393E0,9.809914403E0
3.361123030E0,9.756372124E-2,3.154360652E-1,9.795277596E0,9.800840870E0
3.363643082E0,7.362170517E-2,3.058592677E-1,9.776124001E0,9.781184515E0
3.366163186E0,6.404489279E-2,3.154360652E-1,9.776124001E0,9.781421274E0
3.368683290E0,8.319851011E-2,3.250128925E-1,9.776124001E0,9.781878953E0
3.371203395E0,7.362170517E-2,3.154360652E-1,9.776124001E0,9.781488667E0
3.373723395E0,6.404489279E-2,3.058592677E-1,9.785700798E0,9.790689033E0
3.376243186E0,7.841010392E-2,3.154360652E-1,9.804854393E0,9.810240452E0
3.378762978E0,8.319851011E-2,3.298012912E-1,9.785700798E0,9.791610235E0
3.381282770E0,7.362170517E-2,3.345896900E-1,9.790489197E0,9.796481467E0
3.383802561E0,6.404489279E-2,3.202244639E-1,9.795277596E0,9.800719802E0
3.386322353E0,6.883329898E-2,3.298012912E-1,9.790489197E0,9.796284277E0
3.388842092E0,6.404489279E-2,3.441664875E-1,9.790489197E0,9.796745941E0
3.391361728E0,7.362170517E-2,3.489548862E-1,9.780912399E0,9.787412172E0
3.393881363E0,8.319851011E-2,3.345896900E-1,9.771335602E0,9.777416412E0
3.396400999E0,7.362170517E-2,3.250128925E-1,9.752182007E0,9.757874125E0
3.398920634E0,7.841010392E-2,3.154360652E-1,9.766547203E0,9.771954376E0
3.401440270E0,9.277531505E-2,3.250128925E-1,9.780912399E0,9.786750636E0
3.403959905E0,9.277531505E-2,3.298012912E-1,9.771335602E0,9.777339904E0
3.406479540E0,8.319851011E-2,3.298012912E-1,9.752182007E0,9.758111742E0
3.408999176E0,8.319851011E-2,3.250128925E-1,9.780912399E0,9.786664536E0
3.411518811E0,9.756372124E-2,3.298012912E-1,9.776124001E0,9.782171949E0
3.414038447E0,9.756372124E-2,3.202244639E-1,9.761758804E0,9.767496984E0
3.416558082E0,1.071405262E-1,3.441664875E-1,9.766547203E0,9.773196710E0
3.419077717E0,9.756372124E-2,3.537433147E-1,9.780912399E0,9.787793437E0
3.421597353E0,9.756372124E-2,3.393780887E-1,9.809642792E0,9.815996530E0
3.424116988E0,9.277531505E-2,3.537433147E-1,9.809642792E0,9.816457268E0
3.426636624E0,7.841010392E-2,3.298012912E-1,9.824007988E0,9.829855034E0
3.429156311E0,8.798690885E-2,3.298012912E-1,9.809642792E0,9.815579570E0
3.431676051E0,9.277531505E-2,3.393780887E-1,9.824007988E0,9.830306083E0
3.434195842E0,9.277531505E-2,3.393780887E-1,9.843161583E0,9.849447431E0
3.436715686E0,8.319851011E-2,3.202244639E-1,9.833584785E0,9.839149121E0
3.439235582E0,7.362170517E-2,3.250128925E-1,9.814431190E0,9.820087226E0
3.441755530E0,7.841010392E-2,3.250128925E-1,9.809642792E0,9.815338671E0
3.444275530E0,6.883329898E-2,3.441664875E-1,9.852738380E0,9.858987889E0
3.446795530E0,6.404489279E-2,3.250128925E-1,9.862315178E0,9.867876965E0
3.449315530E0,7.362170517E-2,3.298012912E-1,9.814431190E0,9.820246873E0
3.451835530E0,6.883329898E-2,3.154360652E-1,9.814431190E0,9.819740197E0
3.454355530E0,8.319851011E-2,3.010708690E-1,9.819219589E0,9.824186430E0
3.456875582E0,8.798690885E-2,2.962824702E-1,9.814431190E0,9.819296543E0
3.459395634E0,8.319851011E-2,3.010708690E-1,9.804854393E0,9.809828507E0
3.461915738E0,7.841010392E-2,2.867056429E-1,9.776124001E0,9.780641530E0
3.464435895E0,9.756372124E-2,2.962824702E-1,9.742605209E0,9.747597563E0
3.466956051E0,9.277531505E-2,2.962824702E-1,9.747393608E0,9.752336782E0
3.469476207E0,8.798690885E-2,2.962824702E-1,9.747393608E0,9.752292405E0
3.471996363E0,9.277531505E-2,2.867056429E-1,9.747393608E0,9.752050530E0
3.474516520E0,8.798690885E-2,2.723404467E-1,9.747393608E0,9.751594391E0
3.477036207E0,8.798690885E-2,2.771288455E-1,9.761758804E0,9.766088114E0
3.479555895E0,1.023521200E-1,2.867056429E-1,9.747393608E0,9.752146340E0
3.482075582E0,1.167173311E-1,2.819172442E-1,9.752182007E0,9.756954144E0
3.484595270E0,1.119289324E-1,2.867056429E-1,9.761758804E0,9.766609604E0
3.487114957E0,1.071405262E-1,2.723404467E-1,9.771335602E0,9.775717255E0
3.489634645E0,9.756372124E-2,2.819172442E-1,9.771335602E0,9.775888474E0
3.492154332E0,1.023521200E-1,2.579752207E-1,9.766547203E0,9.770489826E0
3.494674020E0,9.756372124E-2,2.579752207E-1,9.766547203E0,9.770440838E0
3.497193707E0,9.756372124E-2,2.771288455E-1,9.804854393E0,9.809255259E0
3.499713395E0,1.071405262E-1,2.675520480E-1,9.795277596E0,9.799516639E0
3.502233082E0,1.167173311E-1,2.579752207E-1,9.790489197E0,9.794582832E0
3.504752822E0,1.167173311E-1,2.531868219E-1,9.804854393E0,9.808817267E0
3.507272613E0,9.277531505E-2,2.627636492E-1,9.800065994E0,9.804027004E0
3.509792457E0,9.277531505E-2,2.771288455E-1,9.795277596E0,9.799636260E0
3.512312353E0,1.071405262E-1,2.723404467E-1,9.804854393E0,9.809221074E0
3.514832249E0,1.023521200E-1,2.627636492E-1,9.814431190E0,9.818481567E0
3.517352145E0,1.023521200E-1,2.531868219E-1,9.804854393E0,9.808656850E0
3.519872040E0,1.023521200E-1,2.579752207E-1,9.819219589E0,9.823141072E0
3.522391936E0,1.071405262E-1,2.579752207E-1,9.819219589E0,9.823192131E0
3.524911832E0,9.756372124E-2,2.579752207E-1,9.824007988E0,9.827878858E0
3.527431728E0,8.798690885E-2,2.531868219E-1,9.819219589E0,9.822877308E0
3.529951259E0,8.319851011E-2,2.436100245E-1,9.795277596E0,9.798659654E0
3.532470790E0,8.798690885E-2,2.579752207E-1,9.795277596E0,9.799069144E0
3.534990322E0,8.798690885E-2,2.771288455E-1,9.819219589E0,9.823523575E0
3.537509853E0,9.277531505E-2,2.675520480E-1,9.804854393E0,9.808942911E0
3.540029384E0,5.925649032E-2,2.771288455E-1,9.804854393E0,9.808949046E0
3.542548915E0,6.883329898E-2,2.771288455E-1,9.809642792E0,9.813797946E0
3.545068447E0,7.841010392E-2,2.675520480E-1,9.833584785E0,9.837536377E0
3.547587978E0,7.841010392E-2,2.819172442E-1,9.814431190E0,9.818792445E0
3.550107509E0,9.756372124E-2,2.771288455E-1,9.795277596E0,9.799682763E0
3.552627040E0,9.756372124E-2,2.819172442E-1,9.809642792E0,9.814177893E0
3.555146572E0,8.319851011E-2,3.058592677E-1,9.795277596E0,9.800404841E0
3.557666103E0,8.319851011E-2,3.058592677E-1,9.785700798E0,9.790833059E0
3.560185634E0,8.319851011E-2,3.058592677E-1,9.771335602E0,9.776475404E0
3.562705165E0,8.319851011E-2,3.154360652E-1,9.776124001E0,9.781565436E0
3.565224749E0,9.277531505E-2,3.154360652E-1,9.780912399E0,9.786437275E0
3.567744384E0,8.319851011E-2,3.058592677E-1,9.785700798E0,9.790833059E0
3.570264072E0,8.319851011E-2,3.058592677E-1,9.785700798E0,9.790833059E0
3.572783811E0,1.119289324E-1,3.106476665E-1,9.756970406E0,9.762556097E0
3.575303603E0,1.215057373E-1,3.250128925E-1,9.756970406E0,9.763138252E0
3.577823447E0,1.023521200E-1,3.537433147E-1,9.756970406E0,9.763917338E0
3.580343342E0,1.215057373E-1,3.537433147E-1,9.756970406E0,9.764136904E0
3.582863290E0,1.119289324E-1,3.537433147E-1,9.776124001E0,9.783162213E0
3.585383290E0,9.277531505E-2,3.633201122E-1,9.776124001E0,9.783312795E0
3.587903290E0,1.071405262E-1,3.441664875E-1,9.756970406E0,9.763626435E0
3.590423290E0,1.119289324E-1,3.441664875E-1,9.776124001E0,9.782820612E0
3.592943290E0,1.215057373E-1,3.489548862E-1,9.785700798E0,9.792674469E0
3.595463290E0,1.358709484E-1,3.441664875E-1,9.780912399E0,9.787908809E0
3.597983290E0,1.262941360E-1,3.489548862E-1,9.776124001E0,9.783165142E0
3.600503134E0,1.167173311E-1,3.441664875E-1,9.795277596E0,9.802016970E0
3.603022874E0,1.071405262E-1,3.585317135E-1,9.785700798E0,9.792852710E0
3.605542613E0,1.119289324E-1,3.537433147E-1,9.800065994E0,9.807087025E0
3.608062353E0,1.215057373E-1,3.585317135E-1,9.814431190E0,9.821729391E0
3.610582145E0,1.071405262E-1,3.633201122E-1,9.809642792E0,9.816953310E0
3.613101988E0,1.167173311E-1,3.585317135E-1,9.809642792E0,9.816886453E0
3.615621884E0,1.119289324E-1,3.633201122E-1,9.804854393E0,9.812221933E0
3.618141832E0,1.071405262E-1,3.681085110E-1,9.809642792E0,9.817131693E0
3.620661832E0,1.023521200E-1,3.441664875E-1,9.809642792E0,9.816212010E0
3.623181884E0,1.167173311E-1,3.393780887E-1,9.800065994E0,9.806635198E0
3.625701988E0,1.023521200E-1,3.345896900E-1,9.800065994E0,9.806310198E0
3.628222197E0,9.756372124E-2,3.489548862E-1,9.819219589E0,9.825902581E0
3.630742457E0,9.277531505E-2,3.537433147E-1,9.809642792E0,9.816457268E0
3.633262770E0,9.277531505E-2,3.489548862E-1,9.785700798E0,9.792360128E0
3.635783134E0,1.023521200E-1,3.489548862E-1,9.776124001E0,9.782885359E0
3.638303499E0,1.119289324E-1,3.441664875E-1,9.795277596E0,9.801961122E0
3.640823863E0,1.071405262E-1,3.345896900E-1,9.780912399E0,9.787220071E0
3.643344228E0,1.023521200E-1,3.393780887E-1,9.780912399E0,9.787333692E0
3.645863967E0,1.023521200E-1,3.345896900E-1,9.780912399E0,9.787168824E0
3.648383707E0,1.167173311E-1,3.250128925E-1,9.776124001E0,9.782221465E0
3.650903447E0,1.167173311E-1,3.250128925E-1,9.795277596E0,9.801363144E0
3.653423186E0,1.215057373E-1,3.345896900E-1,9.771335602E0,9.777817412E0
3.655942978E0,9.756372124E-2,3.250128925E-1,9.766547203E0,9.772440654E0
3.658462822E0,9.756372124E-2,3.441664875E-1,9.771335602E0,9.777881606E0
3.660982717E0,7.841010392E-2,3.298012912E-1,9.766547203E0,9.772428629E0
3.663502665E0,9.756372124E-2,3.250128925E-1,9.771335602E0,9.777226166E0
3.666022613E0,9.277531505E-2,3.298012912E-1,9.766547203E0,9.772554447E0
3.668542561E0,7.841010392E-2,3.345896900E-1,9.752182007E0,9.758235102E0
3.671062561E0,1.023521200E-1,3.250128925E-1,9.752182007E0,9.758133184E0
3.673582561E0,9.277531505E-2,3.058592677E-1,9.761758804E0,9.766989920E0
3.676102613E0,8.319851011E-2,3.202244639E-1,9.761758804E0,9.767364059E0
3.678622717E0,7.841010392E-2,3.202244639E-1,9.771335602E0,9.776895790E0
3.681142874E0,7.362170517E-2,3.345896900E-1,9.785700798E0,9.791695998E0
3.683663082E0,8.319851011E-2,3.250128925E-1,9.785700798E0,9.791450121E0
3.686183342E0,8.319851011E-2,3.345896900E-1,9.800065994E0,9.806128989E0
3.688703655E0,9.277531505E-2,3.441664875E-1,9.785700798E0,9.792190661E0
3.691223967E0,8.319851011E-2,3.585317135E-1,9.756970406E0,9.763909999E0
3.693744280E0,6.883329898E-2,3.633201122E-1,9.756970406E0,9.763975165E0
3.696264540E0,7.362170517E-2,3.681085110E-1,9.780912399E0,9.788113781E0
3.698784592E0,4.489128292E-2,3.776853085E-1,9.790489197E0,9.797874266E0
3.701304645E0,5.446808785E-2,3.728969097E-1,9.800065994E0,9.807309130E0
3.703824540E0,5.446808785E-2,3.776853085E-1,9.790489197E0,9.797922825E0
3.706344332E0,6.404489279E-2,3.681085110E-1,9.790489197E0,9.797616258E0
3.708864020E0,7.362170517E-2,3.776853085E-1,9.795277596E0,9.802832729E0
3.711383707E0,6.883329898E-2,3.872621357E-1,9.795277596E0,9.803171587E0
3.713903395E0,8.798690885E-2,3.728969097E-1,9.790489197E0,9.797983084E0
3.716423082E0,9.277531505E-2,3.824737072E-1,9.795277596E0,9.803180941E0
3.718942770E0,9.277531505E-2,3.824737072E-1,9.790489197E0,9.798396405E0
3.721462457E0,9.756372124E-2,3.776853085E-1,9.790489197E0,9.798257171E0
3.723982145E0,9.277531505E-2,3.872621357E-1,9.790489197E0,9.798584486E0
3.726501832E0,9.756372124E-2,4.112041295E-1,9.785700798E0,9.794822491E0
3.729021520E0,9.277531505E-2,4.159925580E-1,9.785700798E0,9.794978161E0
3.731541207E0,1.119289324E-1,4.112041295E-1,9.780912399E0,9.790192250E0
3.734060895E0,1.119289324E-1,4.112041295E-1,9.776124001E0,9.785408392E0
3.736580634E0,1.215057373E-1,3.968389332E-1,9.776124001E0,9.784929497E0
3.739100426E0,1.215057373E-1,4.016273320E-1,9.780912399E0,9.789908862E0
3.741620270E0,1.358709484E-1,3.968389332E-1,9.752182007E0,9.761198489E0
3.744140217E0,1.310825497E-1,4.159925580E-1,9.766547203E0,9.776281334E0
3.746660270E0,1.262941360E-1,4.064157307E-1,9.776124001E0,9.785383203E0
3.749180426E0,1.262941360E-1,4.016273320E-1,9.776124001E0,9.785185496E0
3.751700634E0,1.310825497E-1,3.872621357E-1,9.761758804E0,9.770316758E0
3.754220895E0,1.262941360E-1,3.824737072E-1,9.761758804E0,9.770065061E0
3.756741155E0,1.167173311E-1,3.728969097E-1,9.761758804E0,9.769575733E0
3.759261415E0,1.167173311E-1,3.776853085E-1,9.756970406E0,9.764975198E0
3.761781676E0,1.119289324E-1,3.824737072E-1,9.747393608E0,9.755536704E0
3.764301936E0,1.119289324E-1,3.776853085E-1,9.771335602E0,9.779272658E0
3.766822145E0,1.119289324E-1,3.728969097E-1,9.771335602E0,9.779088896E0
3.769342197E0,1.071405262E-1,3.728969097E-1,9.780912399E0,9.788604526E0
3.771862249E0,1.023521200E-1,3.585317135E-1,9.771335602E0,9.778446727E0
3.774382301E0,9.756372124E-2,3.681085110E-1,9.761758804E0,9.769184076E0
3.776902353E0,9.277531505E-2,3.633201122E-1,9.780912399E0,9.788097677E0
3.779422405E0,9.277531505E-2,3.393780887E-1,9.780912399E0,9.787238227E0
3.781942457E0,9.277531505E-2,3.298012912E-1,9.790489197E0,9.796481759E0
3.784462561E0,9.756372124E-2,3.202244639E-1,9.790489197E0,9.796210548E0
3.786982717E0,8.798690885E-2,3.202244639E-1,9.790489197E0,9.796119850E0
3.789502926E0,7.362170517E-2,3.202244639E-1,9.800065994E0,9.805572770E0
3.792023186E0,6.883329898E-2,3.154360652E-1,9.780912399E0,9.786239589E0
3.794543499E0,7.841010392E-2,3.010708690E-1,9.800065994E0,9.805003075E0
3.797063811E0,7.362170517E-2,2.962824702E-1,9.824007988E0,9.828750501E0
3.799584124E0,7.362170517E-2,3.058592677E-1,9.833584785E0,9.838615745E0
3.802104384E0,7.362170517E-2,2.819172442E-1,9.819219589E0,9.823541664E0
3.804624228E0,6.883329898E-2,2.867056429E-1,9.833584785E0,9.838004263E0
3.807144072E0,8.798690885E-2,2.771288455E-1,9.819219589E0,9.823523575E0
3.809663915E0,8.319851011E-2,2.675520480E-1,9.804854393E0,9.808857006E0
3.812183759E0,9.277531505E-2,2.483984232E-1,9.824007988E0,9.827585766E0
3.814703603E0,8.798690885E-2,2.531868219E-1,9.814431190E0,9.818090693E0
3.817223447E0,1.023521200E-1,2.627636492E-1,9.814431190E0,9.818481567E0
3.819743290E0,9.277531505E-2,2.388216257E-1,9.795277596E0,9.798627771E0
3.822263186E0,8.798690885E-2,2.340332121E-1,9.804854393E0,9.808041747E0
3.824783134E0,1.023521200E-1,2.388216257E-1,9.819219589E0,9.822656721E0
3.827303134E0,9.756372124E-2,2.292448133E-1,9.790489197E0,9.793658692E0
3.829823186E0,1.071405262E-1,2.436100245E-1,9.766547203E0,9.770172425E0
3.832343290E0,1.023521200E-1,2.340332121E-1,9.756970406E0,9.760313468E0
3.834863447E0,9.756372124E-2,2.388216257E-1,9.771335602E0,9.774740605E0
3.837383603E0,8.319851011E-2,2.436100245E-1,9.771335602E0,9.774725944E0
3.839903759E0,7.362170517E-2,2.436100245E-1,9.776124001E0,9.779435898E0
3.842423915E0,8.319851011E-2,2.531868219E-1,9.771335602E0,9.774969310E0
3.844944072E0,9.277531505E-2,2.340332121E-1,9.795277596E0,9.798512233E0
3.847464228E0,8.798690885E-2,2.292448133E-1,9.785700798E0,9.788781078E0
3.849984384E0,9.277531505E-2,2.531868219E-1,9.761758804E0,9.765482363E0
3.852504540E0,1.023521200E-1,2.579752207E-1,9.771335602E0,9.775276293E0
3.855024749E0,9.277531505E-2,2.627636492E-1,9.756970406E0,9.760948903E0
3.857544957E0,7.841010392E-2,2.675520480E-1,9.756970406E0,9.760953014E0
3.860065165E0,6.404489279E-2,2.675520480E-1,9.756970406E0,9.760848188E0
3.862585374E0,5.925649032E-2,2.531868219E-1,9.756970406E0,9.760434744E0
3.865105582E0,5.925649032E-2,2.627636492E-1,9.780912399E0,9.784620761E0
3.867625842E0,5.925649032E-2,2.675520480E-1,9.766547203E0,9.770390970E0
3.870146155E0,6.883329898E-2,2.723404467E-1,9.776124001E0,9.780158885E0
3.872666520E0,5.446808785E-2,2.771288455E-1,9.785700798E0,9.789775650E0
3.875186936E0,5.925649032E-2,3.010708690E-1,9.776124001E0,9.780938374E0
3.877707353E0,5.925649032E-2,2.962824702E-1,9.771335602E0,9.776006039E0
3.880227770E0,4.967968538E-2,3.010708690E-1,9.780912399E0,9.785671111E0
3.882748186E0,6.883329898E-2,2.914940715E-1,9.766547203E0,9.771138679E0
3.885268395E0,6.404489279E-2,3.058592677E-1,9.776124001E0,9.781117120E0
3.887788238E0,6.404489279E-2,3.202244639E-1,9.785700798E0,9.791148327E0
3.890308030E0,6.404489279E-2,3.202244639E-1,9.800065994E0,9.805505543E0
3.892827665E0,6.404489279E-2,3.058592677E-1,9.795277596E0,9.800260956E0
3.895347249E0,7.841010392E-2,3.058592677E-1,9.790489197E0,9.795579449E0
3.897866832E0,9.756372124E-2,3.250128925E-1,9.814431190E0,9.820295905E0
3.900386415E0,8.798690885E-2,3.298012912E-1,9.819219589E0,9.825150580E0
3.902905999E0,7.362170517E-2,3.154360652E-1,9.809642792E0,9.814989137E0
3.905425478E0,9.277531505E-2,3.202244639E-1,9.819219589E0,9.824877827E0
3.907944957E0,1.023521200E-1,3.345896900E-1,9.833584785E0,9.839807719E0
3.910464436E0,1.071405262E-1,3.345896900E-1,9.828796387E0,9.835073348E0
3.912983915E0,1.023521200E-1,3.441664875E-1,9.824007988E0,9.830567607E0
3.915503395E0,1.071405262E-1,3.441664875E-1,9.838373184E0,9.844974178E0
3.918022874E0,1.119289324E-1,3.441664875E-1,9.847949982E0,9.854597785E0
3.920542353E0,1.262941360E-1,3.489548862E-1,9.833584785E0,9.840584813E0
3.923061884E0,1.358709484E-1,3.585317135E-1,9.824007988E0,9.831487113E0
3.925581467E0,1.406593472E-1,3.585317135E-1,9.804854393E0,9.812415590E0
3.928101051E0,1.454477459E-1,3.537433147E-1,9.809642792E0,9.817096367E0
3.930620634E0,1.262941360E-1,3.489548862E-1,9.824007988E0,9.831014834E0
3.933140217E0,1.119289324E-1,3.441664875E-1,9.828796387E0,9.835457136E0
3.935659853E0,1.262941360E-1,3.489548862E-1,9.824007988E0,9.831014834E0
3.938179488E0,1.310825497E-1,3.345896900E-1,9.814431190E0,9.821007712E0
3.940699124E0,1.215057373E-1,3.441664875E-1,9.795277596E0,9.802075157E0
3.943218759E0,1.167173311E-1,3.441664875E-1,9.790489197E0,9.797231865E0
3.945738395E0,1.071405262E-1,3.633201122E-1,9.785700798E0,9.793029189E0
3.948258030E0,1.023521200E-1,3.681085110E-1,9.776124001E0,9.783587292E0
3.950777665E0,8.798690885E-2,3.585317135E-1,9.776124001E0,9.783091902E0
3.953297145E0,7.841010392E-2,3.585317135E-1,9.790489197E0,9.797365556E0
3.955816624E0,8.798690885E-2,3.489548862E-1,9.800065994E0,9.806671438E0
3.958336103E0,8.319851011E-2,3.298012912E-1,9.790489197E0,9.796395745E0
3.960855634E0,8.798690885E-2,3.345896900E-1,9.780912399E0,9.787029137E0
3.963375217E0,8.798690885E-2,3.441664875E-1,9.776124001E0,9.782575977E0
3.965894853E0,9.756372124E-2,3.441664875E-1,9.766547203E0,9.773096414E0
3.968414540E0,9.277531505E-2,3.489548862E-1,9.742605209E0,9.749293976E0
3.970934228E0,7.362170517E-2,3.489548862E-1,9.742605209E0,9.749130522E0
3.973453915E0,8.319851011E-2,3.393780887E-1,9.766547203E0,9.772796107E0
3.975973603E0,7.841010392E-2,3.154360652E-1,9.766547203E0,9.771954376E0
3.978493290E0,8.798690885E-2,3.298012912E-1,9.766547203E0,9.772510162E0
3.981012978E0,8.798690885E-2,3.202244639E-1,9.756970406E0,9.762620391E0
3.983532665E0,6.883329898E-2,3.250128925E-1,9.761758804E0,9.767410422E0
3.986052353E0,8.798690885E-2,3.106476665E-1,9.742605209E0,9.747953628E0
3.988571936E0,1.023521200E-1,3.106476665E-1,9.742605209E0,9.748093875E0
3.991091520E0,9.277531505E-2,2.962824702E-1,9.718663216E0,9.723620995E0
3.993611103E0,9.756372124E-2,3.154360652E-1,9.704298019E0,9.709913421E0
3.996130686E0,8.798690885E-2,3.202244639E-1,9.718663216E0,9.724335458E0
3.998650165E0,1.071405262E-1,3.250128925E-1,9.737816811E0,9.743828237E0
4.001169645E0,1.023521200E-1,3.298012912E-1,9.747393608E0,9.753508446E0
4.003689124E0,1.071405262E-1,3.202244639E-1,9.756970406E0,9.762811803E0
4.006208603E0,1.071405262E-1,3.250128925E-1,9.752182007E0,9.758184584E0
4.008728082E0,9.756372124E-2,3.298012912E-1,9.776124001E0,9.782171949E0
4.011247561E0,8.798690885E-2,3.441664875E-1,9.766547203E0,9.773005502E0
4.013767092E0,1.071405262E-1,3.441664875E-1,9.776124001E0,9.782766998E0
4.016286676E0,1.119289324E-1,3.393780887E-1,9.780912399E0,9.787438528E0
4.018806311E0,9.756372124E-2,3.489548862E-1,9.785700798E0,9.792406665E0
4.021325947E0,9.756372124E-2,3.441664875E-1,9.804854393E0,9.811378034E0
4.023845582E0,9.756372124E-2,3.345896900E-1,9.809642792E0,9.815832142E0
4.026365217E0,1.119289324E-1,3.250128925E-1,9.819219589E0,9.825234593E0
4.028884853E0,1.071405262E-1,3.345896900E-1,9.819219589E0,9.825502669E0
4.031404488E0,9.756372124E-2,3.250128925E-1,9.824007988E0,9.829866988E0
4.033924124E0,9.756372124E-2,3.441664875E-1,9.824007988E0,9.830518918E0
4.036443759E0,1.071405262E-1,3.489548862E-1,9.814431190E0,9.821217246E0
4.038963395E0,9.277531505E-2,3.633201122E-1,9.819219589E0,9.826376855E0
4.041483082E0,9.756372124E-2,3.489548862E-1,9.814431190E0,9.821117441E0
4.044002822E0,9.756372124E-2,3.681085110E-1,9.814431190E0,9.821816642E0
4.046522613E0,9.277531505E-2,3.681085110E-1,9.833584785E0,9.840909555E0
4.049042457E0,1.119289324E-1,3.633201122E-1,9.814431190E0,9.821791546E0
4.051562405E0,9.756372124E-2,3.728969097E-1,9.790489197E0,9.798073765E0
4.054082457E0,8.319851011E-2,3.728969097E-1,9.809642792E0,9.817080309E0
4.056602613E0,7.841010392E-2,3.824737072E-1,9.780912399E0,9.788701734E0
4.059122822E0,9.277531505E-2,4.064157307E-1,9.761758804E0,9.770655861E0
4.061643082E0,8.798690885E-2,4.016273320E-1,9.771335602E0,9.779981884E0
4.064163342E0,7.841010392E-2,4.016273320E-1,9.752182007E0,9.760763625E0
4.066683603E0,8.319851011E-2,3.872621357E-1,9.761758804E0,9.769791651E0
4.069203186E0,8.798690885E-2,3.872621357E-1,9.771335602E0,9.779402492E0
4.071722770E0,1.023521200E-1,3.728969097E-1,9.756970406E0,9.764630027E0
4.074242353E0,8.798690885E-2,3.681085110E-1,9.742605209E0,9.749953940E0
4.076761936E0,9.277531505E-2,3.776853085E-1,9.728240013E0,9.736010847E0
4.079281520E0,9.756372124E-2,3.776853085E-1,9.723451614E0,9.731273101E0
4.081801103E0,1.023521200E-1,3.920505345E-1,9.733028412E0,9.741458907E0
4.084320686E0,8.319851011E-2,4.016273320E-1,9.728240013E0,9.736882471E0
4.086840322E0,1.071405262E-1,3.920505345E-1,9.752182007E0,9.760647346E0
4.089360009E0,1.167173311E-1,3.824737072E-1,9.742605209E0,9.750808445E0
4.091879749E0,9.277531505E-2,3.728969097E-1,9.752182007E0,9.759749651E0
4.094399592E0,9.277531505E-2,3.728969097E-1,9.752182007E0,9.759749651E0
4.096919540E0,9.756372124E-2,3.681085110E-1,9.776124001E0,9.783538370E0
4.099439592E0,1.023521200E-1,3.681085110E-1,9.761758804E0,9.769233071E0
4.101959749E0,1.215057373E-1,3.489548862E-1,9.761758804E0,9.768749567E0
4.104480009E0,1.215057373E-1,3.537433147E-1,9.752182007E0,9.759352021E0
4.107000374E0,1.167173311E-1,3.441664875E-1,9.761758804E0,9.768521304E0
4.109520842E0,1.215057373E-1,3.633201122E-1,9.766547203E0,9.774057981E0
4.112041415E0,1.262941360E-1,3.585317135E-1,9.780912399E0,9.788296203E0
4.114562092E0,1.167173311E-1,3.537433147E-1,9.804854393E0,9.811927789E0
4.117082874E0,1.215057373E-1,3.441664875E-1,9.795277596E0,9.802075157E0
4.119603707E0,1.071405262E-1,3.298012912E-1,9.790489197E0,9.796628333E0
4.122124592E0,1.119289324E-1,3.250128925E-1,9.800065994E0,9.806092747E0
4.124645478E0,1.215057373E-1,3.250128925E-1,9.819219589E0,9.825348359E0
4.127166363E0,1.215057373E-1,3.154360652E-1,9.809642792E0,9.815465107E0
4.129686467E0,1.119289324E-1,3.058592677E-1,9.819219589E0,9.824619653E0
4.132206363E0,1.023521200E-1,3.010708690E-1,9.809642792E0,9.814795532E0
4.134726051E0,1.167173311E-1,3.058592677E-1,9.824007988E0,9.829461113E0
4.137245738E0,1.215057373E-1,3.058592677E-1,9.838373184E0,9.843876292E0
4.139765426E0,1.023521200E-1,2.962824702E-1,9.852738380E0,9.857723513E0
4.142285113E0,9.277531505E-2,2.771288455E-1,9.833584785E0,9.837926478E0
4.144804801E0,8.319851011E-2,2.675520480E-1,9.838373184E0,9.842362166E0
4.147324540E0,1.071405262E-1,2.675520480E-1,9.804854393E0,9.809089298E0
4.149844332E0,8.798690885E-2,2.531868219E-1,9.824007988E0,9.827663924E0
4.152364176E0,9.277531505E-2,2.483984232E-1,9.824007988E0,9.827585766E0
4.154884072E0,8.798690885E-2,2.483984232E-1,9.804854393E0,9.808395034E0
4.157404020E0,8.319851011E-2,2.483984232E-1,9.800065994E0,9.803566558E0
4.159924020E0,8.798690885E-2,2.531868219E-1,9.804854393E0,9.808517469E0
4.162444072E0,7.841010392E-2,2.292448133E-1,9.795277596E0,9.798273547E0
4.164964124E0,7.362170517E-2,2.340332121E-1,9.809642792E0,9.812710298E0
4.167484176E0,8.319851011E-2,2.436100245E-1,9.804854393E0,9.808233149E0
4.170004228E0,8.319851011E-2,2.244564146E-1,9.814431190E0,9.817350063E0
4.172524280E0,7.362170517E-2,2.340332121E-1,9.790489197E0,9.793562703E0
4.175044332E0,7.362170517E-2,2.531868219E-1,9.771335602E0,9.774892489E0
4.177564384E0,7.362170517E-2,2.340332121E-1,9.761758804E0,9.764841353E0
4.180084176E0,7.841010392E-2,2.436100245E-1,9.756970406E0,9.760326095E0
4.182603915E0,9.756372124E-2,2.531868219E-1,9.790489197E0,9.794248361E0
4.185123499E0,8.798690885E-2,2.579752207E-1,9.790489197E0,9.794282599E0
4.187643082E0,9.756372124E-2,2.483984232E-1,9.785700798E0,9.789339128E0
4.190162665E0,7.841010392E-2,2.340332121E-1,9.780912399E0,9.784026117E0
4.192682249E0,7.841010392E-2,2.483984232E-1,9.800065994E0,9.803527090E0
4.195201832E0,8.319851011E-2,2.483984232E-1,9.785700798E0,9.789206499E0
4.197721415E0,9.756372124E-2,2.340332121E-1,9.795277596E0,9.798558741E0
4.200240999E0,9.277531505E-2,2.436100245E-1,9.776124001E0,9.779598845E0
